trials.thisRepN,resp_Q.corr,Participant,Group,targetOnset.rt,FreqBNCSpoken.log
1,1,572187,L2,0.3410851,3.135494216
0,1,864280,L2,0.528337,3.135494216
0,1,306328,L2,0.7029527,3.135494216
0,1,85913,L2,0.6761574,3.135494216
1,0,843976,L2,0.4876685,3.135494216
1,1,85913,L2,0.6484855,3.135494216
0,0,752128,L2,0.4874159,3.135494216
0,1,373596,L2,0.636636,3.135494216
1,1,648557,L2,0.5356996,3.135494216
1,1,147512,L2,0.5229145,3.135494216
1,1,447513,L2,0.8379494,3.135494216
1,1,922683,L2,0.5241775,3.135494216
0,1,843976,L2,0.6391597,3.135494216
0,1,911462,L2,0.4920102,3.135494216
0,0,108486,L2,0.666688,3.135494216
0,1,607827,L2,1.0101841,3.135494216
1,1,767065,L2,0.3841495,3.135494216
0,1,998663,L2,0.6389338,3.135494216
0,1,154393,L2,0.5343586,3.135494216
1,1,959490,L2,0.371025,3.135494216
1,0,452163,L2,0.5715044,3.135494216
1,0,501349,L2,0.3735327,3.135494216
0,1,316397,L2,0.7078746,3.135494216
1,1,998663,L2,0.4649707,3.135494216
0,1,447513,L2,0.6913601,3.135494216
0,0,183117,L2,0.6097138,3.135494216
1,0,251621,L2,0.4594456,3.135494216
1,1,173085,L2,0.3447335,3.135494216
0,1,648557,L2,0.4734914,3.135494216
0,1,514305,L2,1.0565933,3.135494216
0,1,331100,L2,0.4262343,3.135494216
0,1,15711,L2,0.4023419,3.135494216
1,1,544005,L2,0.6840322,3.135494216
0,0,697259,L2,0.8886658,3.135494216
0,1,871398,L2,0.9318631,3.135494216
1,1,187490,L2,0.3073007,3.135494216
1,1,373596,L2,0.4205933,3.135494216
1,1,871398,L2,0.4967203,3.135494216
1,1,702640,L2,0.6098274,3.135494216
1,1,379265,L2,0.5012059,3.135494216
1,1,617211,L2,0.8186328,3.135494216
0,1,617211,L2,0.6259378,3.135494216
0,0,774770,L2,0.7613506,3.135494216
1,0,697259,L2,0.6940556,3.135494216
0,0,376188,L2,-0.8854702,3.135494216
1,1,697760,L2,0.5321908,3.135494216
1,1,911462,L2,0.5302344,3.135494216
0,0,716031,L2,0.6408161,3.135494216
1,1,631538,L2,0.3945818,3.135494216
0,0,917009,L2,0.3065279,3.135494216
1,1,917009,L2,1.1193325,3.135494216
1,0,248930,L2,-1.174449,3.135494216
1,1,735448,L2,0.3547882,3.135494216
1,1,154393,L2,0.4133896,3.135494216
0,1,631538,L2,0.6221166,3.135494216
0,0,69771,L2,0.6411522,3.135494216
1,1,672285,L2,0.5440959,3.135494216
1,1,376188,L2,0.7229197,3.135494216
0,1,672285,L2,0.5927343,3.135494216
1,1,159491,L2,0.3194358,3.135494216
1,1,717501,L2,0.6751429,3.135494216
1,1,316397,L2,0.7034822,3.135494216
0,1,702640,L2,1.231249,3.135494216
0,1,216249,L2,0.4869871,3.135494216
0,1,379265,L2,0.6311681,3.135494216
1,1,3121,L2,0.7614607,3.135494216
1,0,774770,L2,0.6950252,3.135494216
0,1,792988,L2,1.1293037,3.135494216
1,1,929015,L2,0.6196253,3.135494216
0,0,147512,L2,0.5844311,3.135494216
0,0,3121,L2,0.5400418,3.135494216
1,1,901980,L2,0.3792409,3.135494216
1,1,15711,L2,0.5203692,3.135494216
0,1,929015,L2,0.9102206,3.135494216
1,0,108486,L2,0.6165126,3.135494216
1,1,216249,L2,0.542723,3.135494216
1,1,302458,L2,0.29648,3.135494216
0,0,452163,L2,0.8042092,3.135494216
0,1,187490,L2,0.3900269,3.135494216
1,1,331100,L2,0.5228465,3.135494216
1,1,700064,L2,0.2591754,3.135494216
1,1,183117,L2,0.4731768,3.135494216
0,0,336257,L2,1.0410692,3.135494216
1,1,783049,L2,0.663928,3.135494216
1,0,716031,L2,1.1727583,3.135494216
0,0,964675,L2,0.521775,3.135494216
1,0,69771,L2,0.5612928,3.135494216
1,0,862825,L2,0.2986663,3.135494216
0,1,302458,L2,0.6603021,3.135494216
0,0,862825,L2,0.4547071,3.135494216
1,0,586804,L2,0.8795507,3.135494216
1,1,306328,L2,0.5790061,3.135494216
0,1,735448,L2,0.5367297,3.135494216
0,1,173085,L2,0.456758,3.135494216
0,0,790740,L2,0.6688251,3.135494216
0,1,717501,L2,0.5409463,3.135494216
0,1,544005,L2,0.7924973,3.135494216
0,1,886168,L2,0.6169311,3.135494216
0,1,697760,L2,0.8495063,3.135494216
0,1,572187,L2,0.3988865,3.135494216
1,0,790740,L2,0.2723839,3.135494216
1,0,336257,L2,0.6804283,3.135494216
0,1,159491,L2,0.3683717,3.135494216
0,1,251621,L2,0.7091415,3.135494216
0,1,901980,L2,0.7280992,3.135494216
0,0,248930,L2,-1.3800443,3.135494216
1,1,752128,L2,0.4701386,3.135494216
1,1,864280,L2,0.3605931,3.135494216
1,1,514305,L2,0.8823507,3.135494216
0,1,922683,L2,0.7509666,3.135494216
0,1,783049,L2,0.888602,3.135494216
0,1,700064,L2,0.2591104,3.135494216
0,0,767065,L2,0.7800807,3.135494216
0,0,501349,L2,0.4812485,3.135494216
0,1,735448,L2,0.4707455,3.135494216
0,0,147512,L2,0.4790591,3.135494216
0,1,871398,L2,0.4322425,3.135494216
1,0,790740,L2,0.4794133,3.135494216
1,1,774770,L2,0.4838803,3.135494216
0,0,187490,L2,0.9597166,3.135494216
0,1,316397,L2,0.4620318,3.135494216
0,1,216249,L2,0.3455892,3.135494216
0,0,862825,L2,0.470117,3.135494216
0,1,783049,L2,0.6788617,3.135494216
1,1,917009,L2,0.3099244,3.135494216
1,0,452163,L2,0.3432329,3.135494216
1,1,672285,L2,0.488689,3.135494216
1,1,922683,L2,0.4994841,3.135494216
0,1,672285,L2,0.4315517,3.135494216
1,1,187490,L2,0.4839702,3.135494216
1,1,331100,L2,0.3454644,3.135494216
0,1,917009,L2,0.4377183,3.135494216
1,1,316397,L2,0.4412219,3.135494216
0,0,69771,L2,0.6935807,3.135494216
1,1,700064,L2,0.3426487,3.135494216
0,0,85913,L2,0.6029362,3.135494216
1,1,216249,L2,0.3599595,3.135494216
0,1,154393,L2,0.4258806,3.135494216
1,1,735448,L2,0.4989645,3.135494216
1,1,959490,L2,0.4521079,3.135494216
0,1,159491,L2,0.6549725,3.135494216
1,1,792988,L2,0.4147977,3.135494216
1,1,843976,L2,0.4304342,3.135494216
0,0,514305,L2,0.5293292,3.135494216
0,0,183117,L2,0.5820268,3.135494216
0,1,922683,L2,0.433911,3.135494216
1,0,964675,L2,0.3811595,3.135494216
0,1,607827,L2,0.6270671,3.135494216
1,0,376188,L2,0.5099227,3.135494216
0,1,697760,L2,1.0307788,3.135494216
0,1,929015,L2,1.1589177,3.135494216
0,1,767065,L2,0.4683601,3.135494216
1,1,648557,L2,0.620638,3.135494216
0,1,702640,L2,0.6593267,3.135494216
0,0,501349,L2,0.651502,3.135494216
1,0,697259,L2,0.4901961,3.135494216
0,0,717501,L2,1.1454989,3.135494216
1,0,586804,L2,0.4643276,3.135494216
1,1,336257,L2,0.5338763,3.135494216
1,0,716031,L2,0.5072701,3.135494216
1,1,147512,L2,0.3933549,3.135494216
1,1,85913,L2,0.7307669,3.135494216
0,1,15711,L2,0.4662037,3.135494216
0,0,336257,L2,0.4369818,3.135494216
0,1,998663,L2,0.3399789,3.135494216
0,0,3121,L2,0.455311,3.135494216
0,0,964675,L2,0.4219948,3.135494216
0,1,373596,L2,0.4609957,3.135494216
1,1,514305,L2,0.3638631,3.135494216
0,0,251621,L2,0.6833858,3.135494216
1,1,3121,L2,0.6310378,3.135494216
0,1,306328,L2,0.6561019,3.135494216
0,1,447513,L2,0.7149872,3.135494216
0,0,248930,L2,-1.3751306,3.135494216
0,1,544005,L2,0.759048,3.135494216
0,1,302458,L2,0.5167263,3.135494216
1,1,173085,L2,0.368249,3.135494216
1,0,501349,L2,0.4276549,3.135494216
1,1,306328,L2,0.5531928,3.135494216
1,1,373596,L2,0.4425985,3.135494216
1,1,871398,L2,0.7058441,3.135494216
0,0,790740,L2,1.0620333,3.135494216
1,1,911462,L2,0.5399095,3.135494216
1,1,929015,L2,1.2014561,3.135494216
1,0,248930,L2,-1.1856651,3.135494216
1,0,251621,L2,0.6955075,3.135494216
1,1,998663,L2,0.354337,3.135494216
0,0,586804,L2,0.8360678,3.135494216
1,1,617211,L2,0.8357969,3.135494216
1,1,544005,L2,0.5130487,3.135494216
1,0,862825,L2,0.4126174,3.135494216
0,1,173085,L2,0.4640441,3.135494216
0,0,108486,L2,0.6595841,3.135494216
0,0,697259,L2,0.5689241,3.135494216
0,1,959490,L2,0.4864437,3.135494216
0,0,752128,L2,0.4560829,3.135494216
0,0,452163,L2,0.4842255,3.135494216
0,1,792988,L2,0.4521669,3.135494216
1,1,631538,L2,0.4029367,3.135494216
1,1,154393,L2,0.4131102,3.135494216
0,1,572187,L2,0.2526407,3.135494216
0,1,700064,L2,0.4776577,3.135494216
0,0,886168,L2,0.9773654,3.135494216
1,1,379265,L2,0.5390922,3.135494216
1,1,302458,L2,0.4457597,3.135494216
0,0,376188,L2,-0.9200338,3.135494216
1,1,752128,L2,0.3729195,3.135494216
1,0,108486,L2,0.8545851,3.135494216
0,1,379265,L2,0.4305535,3.135494216
1,1,159491,L2,0.5079227,3.135494216
1,1,901980,L2,0.5322088,3.135494216
1,1,607827,L2,0.3431173,3.135494216
1,1,697760,L2,0.7131783,3.135494216
1,1,572187,L2,0.2917763,3.135494216
1,1,783049,L2,0.5345457,3.135494216
1,1,702640,L2,0.5149533,3.135494216
1,1,864280,L2,0.3830348,3.135494216
0,1,911462,L2,0.4445156,3.135494216
1,1,15711,L2,0.5262875,3.135494216
0,1,631538,L2,0.4921338,3.135494216
1,1,183117,L2,0.7080655,3.135494216
1,1,717501,L2,0.6736117,3.135494216
0,1,331100,L2,0.7452459,3.135494216
0,1,864280,L2,0.6089901,3.135494216
1,1,767065,L2,0.350964,3.135494216
1,1,886168,L2,0.720698,3.135494216
0,1,648557,L2,0.7239931,3.135494216
0,1,617211,L2,0.6343791,3.135494216
1,0,752128,L2,0.4177781,5.85220248
0,1,183117,L2,0.5571487,5.85220248
0,1,886168,L2,0.4618466,5.85220248
0,1,251621,L2,0.5728656,5.85220248
0,1,964675,L2,0.5962682,5.85220248
1,1,15711,L2,0.4304068,5.85220248
1,1,85913,L2,0.3223247,5.85220248
1,1,964675,L2,0.249387,5.85220248
0,1,697259,L2,0.5350534,5.85220248
1,1,607827,L2,2.0664745,5.85220248
1,1,700064,L2,0.1954837,5.85220248
1,1,501349,L2,0.4406731,5.85220248
0,1,631538,L2,0.536926,5.85220248
1,1,792988,L2,0.3485296,5.85220248
0,1,783049,L2,0.6963594,5.85220248
0,1,447513,L2,0.457128,5.85220248
1,1,183117,L2,0.389279,5.85220248
1,1,69771,L2,0.6963822,5.85220248
0,1,544005,L2,0.4308151,5.85220248
1,0,702640,L2,0.8411941,5.85220248
1,1,251621,L2,0.461684,5.85220248
1,1,216249,L2,0.1846028,5.85220248
0,1,514305,L2,0.4858488,5.85220248
0,0,147512,L2,0.3837863,5.85220248
1,0,316397,L2,0.3320805,5.85220248
1,0,767065,L2,0.3717704,5.85220248
1,0,697760,L2,0.5308145,5.85220248
1,0,886168,L2,0.5304073,5.85220248
1,1,911462,L2,0.4588204,5.85220248
1,1,929015,L2,0.1902959,5.85220248
1,1,447513,L2,0.5397141,5.85220248
1,1,306328,L2,0.4712459,5.85220248
0,1,607827,L2,0.2398799,5.85220248
1,1,672285,L2,0.3209076,5.85220248
1,0,717501,L2,0.5049118,5.85220248
1,1,336257,L2,0.5746342,5.85220248
0,1,901980,L2,0.3802237,5.85220248
0,1,159491,L2,0.3407416,5.85220248
0,0,154393,L2,0.5872104,5.85220248
0,1,767065,L2,0.3935696,5.85220248
1,1,617211,L2,0.7315467,5.85220248
1,1,735448,L2,0.309512,5.85220248
0,1,173085,L2,0.2862665,5.85220248
0,1,15711,L2,0.4036022,5.85220248
1,1,648557,L2,0.5435721,5.85220248
1,1,108486,L2,1.1044036,5.85220248
0,1,752128,L2,0.4034393,5.85220248
0,1,108486,L2,0.3878616,5.85220248
0,1,716031,L2,0.4533691,5.85220248
0,1,929015,L2,0.1211868,5.85220248
1,0,147512,L2,0.1488696,5.85220248
1,0,901980,L2,0.4209021,5.85220248
0,1,586804,L2,0.4097797,5.85220248
1,1,376188,L2,0.9150185,5.85220248
1,1,514305,L2,0.4699615,5.85220248
0,1,843976,L2,0.5554377,5.85220248
0,1,792988,L2,0.3721329,5.85220248
1,1,544005,L2,0.5228689,5.85220248
1,1,862825,L2,0.2936364,5.85220248
0,1,735448,L2,0.3791482,5.85220248
1,1,331100,L2,0.5411113,5.85220248
0,1,216249,L2,0.3703207,5.85220248
0,0,69771,L2,0.3378803,5.85220248
0,1,774770,L2,0.5063148,5.85220248
1,0,154393,L2,0.2783822,5.85220248
1,1,790740,L2,0.4379472,5.85220248
1,1,572187,L2,0.3876958,5.85220248
0,1,862825,L2,0.3265318,5.85220248
0,0,702640,L2,0.5387939,5.85220248
0,1,672285,L2,0.4793789,5.85220248
1,0,716031,L2,0.5618052,5.85220248
0,1,911462,L2,0.4825939,5.85220248
0,1,572187,L2,0.4012599,5.85220248
0,1,306328,L2,0.3759223,5.85220248
1,0,774770,L2,1.228458,5.85220248
1,1,783049,L2,0.3410288,5.85220248
0,1,336257,L2,0.3309966,5.85220248
0,0,717501,L2,0.2680328,5.85220248
1,0,187490,L2,0.3437379,5.85220248
1,1,697259,L2,0.9690317,5.85220248
0,1,922683,L2,0.4943181,5.85220248
0,1,452163,L2,0.3471606,5.85220248
1,1,452163,L2,0.3349476,5.85220248
0,0,187490,L2,0.3620723,5.85220248
0,1,302458,L2,0.6240989,5.85220248
1,1,631538,L2,0.3684329,5.85220248
0,1,998663,L2,0.6334167,5.85220248
1,1,586804,L2,0.3577421,5.85220248
1,1,248930,L2,-0.3643445,5.85220248
1,1,917009,L2,0.5836023,5.85220248
1,1,302458,L2,0.4425667,5.85220248
0,1,85913,L2,0.4116946,5.85220248
1,1,159491,L2,0.2806631,5.85220248
0,1,379265,L2,0.2814909,5.85220248
0,1,316397,L2,0.4213111,5.85220248
0,1,700064,L2,0.4095871,5.85220248
0,1,3121,L2,0.4953884,5.85220248
0,1,373596,L2,0.833071,5.85220248
1,1,373596,L2,0.3943401,5.85220248
1,1,3121,L2,0.4943319,5.85220248
0,1,617211,L2,0.3125196,5.85220248
0,1,917009,L2,0.3585127,5.85220248
1,0,864280,L2,0.3869392,5.85220248
0,1,959490,L2,0.4196942,5.85220248
0,1,648557,L2,0.4537985,5.85220248
1,1,959490,L2,0.3680643,5.85220248
0,1,331100,L2,2.0542347,5.85220248
0,1,864280,L2,0.3593322,5.85220248
0,1,376188,L2,-0.4096226,5.85220248
1,1,173085,L2,0.3768203,5.85220248
0,1,697760,L2,0.3783463,5.85220248
1,1,998663,L2,0.3911928,5.85220248
1,1,922683,L2,0.5187649,5.85220248
1,1,379265,L2,0.330271,5.85220248
1,1,843976,L2,0.2943354,5.85220248
0,1,248930,L2,-0.605833,5.85220248
0,1,501349,L2,0.3329997,5.85220248
1,1,69771,L2,0.7670285,5.85220248
0,1,379265,L2,0.3715413,5.85220248
1,1,792988,L2,0.3546805,5.85220248
1,1,3121,L2,0.4339352,5.85220248
1,1,998663,L2,0.4093434,5.85220248
1,1,631538,L2,0.4705002,5.85220248
1,0,572187,L2,0.2837405,5.85220248
1,0,697760,L2,0.9542944,5.85220248
1,0,901980,L2,0.3167311,5.85220248
1,1,911462,L2,0.3730833,5.85220248
0,1,862825,L2,0.3327507,5.85220248
1,1,159491,L2,0.4338074,5.85220248
0,1,3121,L2,0.7882351,5.85220248
1,1,108486,L2,0.9755919,5.85220248
1,1,735448,L2,0.1850698,5.85220248
0,1,767065,L2,0.6070897,5.85220248
0,0,886168,L2,0.5612745,5.85220248
0,1,617211,L2,0.366098,5.85220248
1,0,717501,L2,1.8170313,5.85220248
0,1,452163,L2,0.4389321,5.85220248
0,1,572187,L2,0.2362228,5.85220248
1,0,187490,L2,0.2407396,5.85220248
1,1,248930,L2,-0.6270626,5.85220248
0,1,607827,L2,0.7484806,5.85220248
1,1,251621,L2,0.4981627,5.85220248
1,1,783049,L2,0.2444183,5.85220248
0,1,998663,L2,0.4904597,5.85220248
0,1,864280,L2,0.4305659,5.85220248
0,1,964675,L2,0.2991424,5.85220248
1,1,331100,L2,0.4481653,5.85220248
1,1,15711,L2,0.3093055,5.85220248
1,1,514305,L2,0.7805396,5.85220248
1,0,886168,L2,0.7569418,5.85220248
0,1,216249,L2,0.301714,5.85220248
1,1,306328,L2,0.3467343,5.85220248
0,1,108486,L2,0.5373708,5.85220248
0,1,697259,L2,0.8974472,5.85220248
0,1,648557,L2,1.0555481,5.85220248
0,1,911462,L2,1.4975792,5.85220248
0,0,316397,L2,0.3186619,5.85220248
1,1,617211,L2,0.2968016,5.85220248
1,1,790740,L2,0.653265,5.85220248
0,1,514305,L2,0.6066776,5.85220248
0,1,922683,L2,0.6223394,5.85220248
1,1,336257,L2,0.3459925,5.85220248
0,1,843976,L2,0.4722912,5.85220248
0,1,929015,L2,0.3111537,5.85220248
0,1,501349,L2,0.304712,5.85220248
1,1,843976,L2,0.2635923,5.85220248
0,1,15711,L2,0.3441924,5.85220248
1,0,752128,L2,0.3268481,5.85220248
1,1,379265,L2,0.5873327,5.85220248
0,1,544005,L2,1.0512401,5.85220248
0,1,159491,L2,0.3446537,5.85220248
0,1,959490,L2,0.3699065,5.85220248
1,1,929015,L2,0.5819386,5.85220248
1,1,544005,L2,0.3541457,5.85220248
0,1,774770,L2,0.5853499,5.85220248
0,1,716031,L2,0.6856728,5.85220248
1,0,767065,L2,0.2669114,5.85220248
1,1,85913,L2,0.5726961,5.85220248
0,1,901980,L2,0.4104881,5.85220248
1,1,871398,L2,0.8877118,5.85220248
0,1,792988,L2,0.403192,5.85220248
0,1,447513,L2,0.4719204,5.85220248
1,1,774770,L2,0.5284077,5.85220248
0,1,85913,L2,0.6957694,5.85220248
1,1,964675,L2,0.3948462,5.85220248
0,1,306328,L2,0.5594687,5.85220248
1,1,452163,L2,0.586937,5.85220248
0,0,702640,L2,0.7003022,5.85220248
1,1,917009,L2,0.3206891,5.85220248
0,1,248930,L2,-0.6320019,5.85220248
1,1,607827,L2,0.1994313,5.85220248
0,0,147512,L2,0.3180983,5.85220248
1,1,700064,L2,0.2569602,5.85220248
1,0,864280,L2,0.2794933,5.85220248
0,1,735448,L2,0.4038171,5.85220248
0,1,183117,L2,0.5565486,5.85220248
0,0,697760,L2,0.7304006,5.85220248
1,0,316397,L2,0.1996286,5.85220248
0,1,631538,L2,0.476034,5.85220248
1,1,147512,L2,0.2639623,5.85220248
0,1,69771,L2,0.690811,5.85220248
1,1,501349,L2,0.2627321,5.85220248
0,1,331100,L2,0.415881,5.85220248
1,1,586804,L2,0.277697,5.85220248
0,1,376188,L2,-0.3255687,5.85220248
0,1,790740,L2,0.9139299,5.85220248
0,1,373596,L2,0.4787327,5.85220248
0,1,336257,L2,0.3848724,5.85220248
0,1,917009,L2,0.3154867,5.85220248
1,1,373596,L2,0.3034883,5.85220248
1,1,216249,L2,0.1722396,5.85220248
0,1,783049,L2,0.3981477,5.85220248
1,1,648557,L2,0.3740786,5.85220248
0,0,752128,L2,0.3817096,5.85220248
0,0,187490,L2,0.5606606,5.85220248
0,0,154393,L2,0.3602344,5.85220248
1,1,716031,L2,0.6108581,5.85220248
1,1,697259,L2,0.7496245,5.85220248
1,1,862825,L2,0.2364931,5.85220248
1,0,702640,L2,0.614969,5.85220248
0,0,672285,L2,0.4162287,5.85220248
1,1,672285,L2,0.3745176,5.85220248
0,1,251621,L2,0.4802491,5.85220248
1,1,302458,L2,0.4475267,5.85220248
1,1,959490,L2,0.3296221,5.85220248
1,1,922683,L2,0.4598984,5.85220248
1,1,173085,L2,0.2748907,5.85220248
0,1,700064,L2,0.2694022,5.85220248
1,0,154393,L2,0.3062067,5.85220248
1,1,183117,L2,0.2738328,5.85220248
0,1,173085,L2,0.3215532,5.85220248
0,1,302458,L2,0.3438478,5.85220248
1,1,376188,L2,0.3689053,5.85220248
1,1,248930,L2,-1.27983,4.828313737
0,1,702640,L2,0.4259827,4.828313737
1,1,316397,L2,0.2118368,4.828313737
1,1,964675,L2,0.2219593,4.828313737
1,1,447513,L2,0.4483147,4.828313737
0,1,173085,L2,0.5546208,4.828313737
0,1,735448,L2,0.3288276,4.828313737
0,1,316397,L2,0.4059879,4.828313737
1,1,617211,L2,0.3660507,4.828313737
1,1,108486,L2,0.2996486,4.828313737
0,1,700064,L2,0.013677,4.828313737
1,1,331100,L2,0.2362398,4.828313737
0,0,302458,L2,0.2797602,4.828313737
1,1,187490,L2,0.3882728,4.828313737
1,1,735448,L2,0.5331782,4.828313737
0,1,792988,L2,0.4683825,4.828313737
0,1,336257,L2,0.5177988,4.828313737
1,0,586804,L2,0.3647428,4.828313737
1,1,716031,L2,0.4607678,4.828313737
1,1,251621,L2,0.5153962,4.828313737
1,1,379265,L2,0.2934772,4.828313737
1,1,767065,L2,0.558805,4.828313737
0,1,607827,L2,0.5284835,4.828313737
0,1,959490,L2,0.5447762,4.828313737
0,1,159491,L2,0.328443,4.828313737
1,0,69771,L2,0.3347901,4.828313737
0,1,251621,L2,0.6918388,4.828313737
0,1,379265,L2,0.5456336,4.828313737
1,1,159491,L2,0.1507936,4.828313737
1,1,173085,L2,0.5418882,4.828313737
1,1,752128,L2,0.486444,4.828313737
1,1,911462,L2,0.2857746,4.828313737
1,1,959490,L2,0.3422709,4.828313737
0,1,586804,L2,0.3410323,4.828313737
0,1,108486,L2,0.2254447,4.828313737
0,1,864280,L2,0.6910253,4.828313737
1,0,697760,L2,0.6117668,4.828313737
0,1,147512,L2,0.5319971,4.828313737
1,1,901980,L2,0.2878313,4.828313737
1,1,306328,L2,0.5957939,4.828313737
0,1,886168,L2,0.5567451,4.828313737
1,1,774770,L2,0.3809105,4.828313737
0,0,447513,L2,0.566402,4.828313737
0,1,790740,L2,0.4352809,4.828313737
0,1,917009,L2,0.4505941,4.828313737
1,1,631538,L2,0.3786337,4.828313737
1,1,572187,L2,0.111037,4.828313737
1,1,373596,L2,0.3155134,4.828313737
0,1,783049,L2,0.4803496,4.828313737
1,1,929015,L2,0.2985731,4.828313737
0,1,154393,L2,0.4623008,4.828313737
0,1,716031,L2,0.7166435,4.828313737
0,1,929015,L2,0.4837966,4.828313737
1,1,917009,L2,0.3963673,4.828313737
1,1,147512,L2,0.0461007,4.828313737
0,1,998663,L2,0.4488524,4.828313737
1,1,886168,L2,0.4885914,4.828313737
1,0,452163,L2,0.4353864,4.828313737
1,0,922683,L2,0.5145274,4.828313737
1,1,700064,L2,0.110716,4.828313737
1,1,783049,L2,0.419312,4.828313737
0,1,871398,L2,0.5575499,4.828313737
0,1,964675,L2,0.577501,4.828313737
1,1,216249,L2,0.1682973,4.828313737
0,1,187490,L2,0.1537376,4.828313737
1,0,514305,L2,0.4439248,4.828313737
1,1,648557,L2,0.5762431,4.828313737
0,1,331100,L2,0.3832504,4.828313737
1,1,792988,L2,0.5182638,4.828313737
1,1,544005,L2,0.3348542,4.828313737
1,1,85913,L2,0.1364878,4.828313737
1,1,501349,L2,0.0918631,4.828313737
0,1,15711,L2,0.4096994,4.828313737
1,1,154393,L2,0.0682626,4.828313737
1,1,336257,L2,0.4917876,4.828313737
0,0,452163,L2,0.5321787,4.828313737
0,1,376188,L2,-1.1789877,4.828313737
1,0,183117,L2,0.5853338,4.828313737
0,0,697760,L2,0.9129303,4.828313737
1,1,376188,L2,0.3213544,4.828313737
1,1,702640,L2,0.5838249,4.828313737
1,1,864280,L2,0.080314,4.828313737
0,1,514305,L2,0.0701303,4.828313737
1,1,871398,L2,0.2553632,4.828313737
0,1,183117,L2,0.557245,4.828313737
0,1,572187,L2,0.2608007,4.828313737
0,1,717501,L2,0.4410715,4.828313737
0,1,306328,L2,0.9835391,4.828313737
0,1,752128,L2,0.3191972,4.828313737
0,1,767065,L2,0.3510058,4.828313737
0,1,911462,L2,0.8357112,4.828313737
0,1,248930,L2,-1.3535285,4.828313737
0,1,901980,L2,0.3797675,4.828313737
0,1,672285,L2,0.6350713,4.828313737
0,1,631538,L2,0.461958,4.828313737
1,1,3121,L2,0.53126,4.828313737
0,1,216249,L2,0.2640868,4.828313737
0,1,617211,L2,0.6111041,4.828313737
0,1,501349,L2,0.6121418,4.828313737
1,0,302458,L2,-0.1944976,4.828313737
1,1,15711,L2,0.5568326,4.828313737
1,1,843976,L2,0.4932966,4.828313737
0,1,774770,L2,1.0007536,4.828313737
0,1,373596,L2,0.5848457,4.828313737
1,1,697259,L2,0.7242639,4.828313737
0,0,922683,L2,0.5564762,4.828313737
1,1,672285,L2,0.338635,4.828313737
0,1,843976,L2,0.2672157,4.828313737
1,1,607827,L2,1.8100995,4.828313737
1,1,717501,L2,0.2633177,4.828313737
0,1,862825,L2,0.2980463,4.828313737
0,1,69771,L2,0.3472631,4.828313737
0,1,697259,L2,0.4853089,4.828313737
1,1,998663,L2,0.2495412,4.828313737
1,1,790740,L2,0.2543891,4.828313737
1,1,862825,L2,0.2907184,4.828313737
0,1,544005,L2,0.3759448,4.828313737
0,1,648557,L2,0.5399716,4.828313737
0,1,85913,L2,0.4428118,4.828313737
0,1,3121,L2,0.470671,4.828313737
0,1,783049,L2,0.665459,4.828313737
1,1,792988,L2,0.5025673,4.828313737
0,1,336257,L2,0.0416135,4.828313737
0,1,3121,L2,0.9566245,4.828313737
1,1,379265,L2,0.4080666,4.828313737
0,1,183117,L2,0.5288318,4.828313737
0,1,159491,L2,0.4356854,4.828313737
0,1,607827,L2,0.5906016,4.828313737
1,1,862825,L2,0.4008964,4.828313737
1,1,783049,L2,0.2860026,4.828313737
0,1,774770,L2,0.5913593,4.828313737
1,1,911462,L2,0.5899738,4.828313737
0,1,514305,L2,0.6137838,4.828313737
0,1,452163,L2,0.4954642,4.828313737
0,0,302458,L2,0.4360658,4.828313737
0,1,843976,L2,0.695957,4.828313737
1,0,752128,L2,0.2497136,4.828313737
0,1,85913,L2,0.5497403,4.828313737
1,1,376188,L2,0.198412,4.828313737
1,1,901980,L2,0.5252511,4.828313737
0,0,173085,L2,0.4728142,4.828313737
0,1,998663,L2,0.2488034,4.828313737
1,1,216249,L2,0.1844489,4.828313737
1,1,514305,L2,-0.0072213,4.828313737
1,1,108486,L2,0.411284,4.828313737
0,1,248930,L2,-1.1765572,4.828313737
1,1,886168,L2,0.4388413,4.828313737
1,1,173085,L2,0.6062368,4.828313737
0,1,964675,L2,0.4798002,4.828313737
1,1,929015,L2,0.5689726,4.828313737
0,1,316397,L2,0.4238855,4.828313737
1,1,306328,L2,0.2995911,4.828313737
0,1,376188,L2,-0.984492,4.828313737
0,1,735448,L2,0.4837565,4.828313737
0,1,373596,L2,0.2497282,4.828313737
1,1,964675,L2,0.2633203,4.828313737
1,1,717501,L2,0.2566157,4.828313737
1,1,251621,L2,0.4915694,4.828313737
1,1,572187,L2,0.2580273,4.828313737
0,0,69771,L2,0.5319711,4.828313737
1,1,373596,L2,0.0348625,4.828313737
0,1,154393,L2,0.2174272,4.828313737
0,1,501349,L2,0.0743338,4.828313737
1,1,716031,L2,0.530037,4.828313737
0,0,216249,L2,0.5482248,4.828313737
0,1,306328,L2,0.6006854,4.828313737
0,1,917009,L2,0.4491882,4.828313737
0,1,697760,L2,0.7772131,4.828313737
1,1,187490,L2,0.2269929,4.828313737
0,1,15711,L2,0.4337187,4.828313737
0,0,447513,L2,0.6868182,4.828313737
0,1,572187,L2,0.2949273,4.828313737
0,1,716031,L2,0.5311897,4.828313737
0,1,147512,L2,0.5269164,4.828313737
0,0,922683,L2,0.614482,4.828313737
1,1,15711,L2,0.0101298,4.828313737
0,1,672285,L2,0.4823228,4.828313737
1,1,697259,L2,0.3674246,4.828313737
1,1,159491,L2,0.1686976,4.828313737
0,1,544005,L2,0.6904068,4.828313737
0,1,886168,L2,0.4678875,4.828313737
0,1,631538,L2,0.7148292,4.828313737
1,1,702640,L2,0.4993705,4.828313737
0,1,379265,L2,0.6694553,4.828313737
0,1,864280,L2,0.6431984,4.828313737
0,1,331100,L2,0.7367128,4.828313737
1,1,959490,L2,0.232896,4.828313737
0,1,187490,L2,0.5767384,4.828313737
1,1,248930,L2,-1.4853577,4.828313737
0,1,901980,L2,0.6059018,4.828313737
0,1,586804,L2,0.5286262,4.828313737
1,0,922683,L2,0.2874877,4.828313737
1,1,843976,L2,0.4761507,4.828313737
1,0,452163,L2,0.4229557,4.828313737
1,1,147512,L2,0.7472642,4.828313737
0,1,871398,L2,0.5510057,4.828313737
0,1,790740,L2,0.1373281,4.828313737
1,1,85913,L2,0.3871219,4.828313737
1,1,316397,L2,0.2394147,4.828313737
1,1,607827,L2,0.5567663,4.828313737
1,1,501349,L2,0.2976004,4.828313737
1,1,617211,L2,0.5187838,4.828313737
1,1,672285,L2,0.4193076,4.828313737
1,1,648557,L2,0.6749014,4.828313737
1,1,917009,L2,0.3608164,4.828313737
0,1,697259,L2,0.4005808,4.828313737
1,1,3121,L2,0.4981023,4.828313737
0,1,767065,L2,0.4834,4.828313737
1,1,864280,L2,0.3548476,4.828313737
1,1,544005,L2,0.3470017,4.828313737
1,1,331100,L2,0.1781672,4.828313737
0,1,792988,L2,0.4638146,4.828313737
1,1,774770,L2,0.4039843,4.828313737
1,0,69771,L2,0.3229958,4.828313737
0,1,702640,L2,0.5671943,4.828313737
1,1,631538,L2,1.0731887,4.828313737
1,1,154393,L2,0.0111268,4.828313737
0,1,617211,L2,0.5566728,4.828313737
1,0,183117,L2,0.3383708,4.828313737
1,1,790740,L2,0.1509983,4.828313737
1,1,336257,L2,0.0089399,4.828313737
1,1,447513,L2,0.6055889,4.828313737
0,1,752128,L2,0.3192456,4.828313737
0,1,717501,L2,0.5067711,4.828313737
0,1,700064,L2,0.4543707,4.828313737
0,1,648557,L2,0.0753506,4.828313737
1,1,586804,L2,0.4798717,4.828313737
0,1,911462,L2,1.5184399,4.828313737
1,1,735448,L2,0.1669217,4.828313737
1,1,700064,L2,0.1076154,4.828313737
0,1,108486,L2,0.9078444,4.828313737
0,1,929015,L2,0.6273975,4.828313737
1,0,697760,L2,0.7190636,4.828313737
1,1,871398,L2,0.1340272,4.828313737
1,1,998663,L2,0.4439515,4.828313737
1,1,302458,L2,0.1076171,4.828313737
0,1,251621,L2,1.3543501,4.828313737
0,1,959490,L2,0.3674601,4.828313737
0,1,862825,L2,0.0535213,4.828313737
1,1,767065,L2,0.5092943,4.828313737
0,1,306328,L2,0.6310925,5.811140993
0,1,697259,L2,0.5061121,5.811140993
0,1,183117,L2,1.0056185,5.811140993
0,1,447513,L2,0.6495299,5.811140993
1,1,336257,L2,0.3117836,5.811140993
1,1,767065,L2,0.5215625,5.811140993
1,1,886168,L2,0.228597,5.811140993
0,1,702640,L2,0.448897,5.811140993
0,1,159491,L2,0.287669,5.811140993
1,1,447513,L2,0.4294447,5.811140993
1,1,251621,L2,0.7779651,5.811140993
0,1,316397,L2,0.733334,5.811140993
0,1,187490,L2,0.4523399,5.811140993
0,1,69771,L2,0.6224661,5.811140993
1,1,917009,L2,0.2974107,5.811140993
0,1,617211,L2,0.5110638,5.811140993
1,1,306328,L2,0.5169799,5.811140993
1,1,843976,L2,0.2902179,5.811140993
0,1,607827,L2,0.3528765,5.811140993
0,1,700064,L2,0.3074292,5.811140993
0,1,862825,L2,0.3851277,5.811140993
1,1,752128,L2,0.3693198,5.811140993
0,1,672285,L2,0.5001666,5.811140993
0,0,790740,L2,0.3862959,5.811140993
0,1,783049,L2,0.5890277,5.811140993
0,1,3121,L2,0.4891581,5.811140993
1,1,672285,L2,0.3535003,5.811140993
0,1,251621,L2,0.4840499,5.811140993
1,1,302458,L2,0.2985812,5.811140993
0,1,154393,L2,0.3697443,5.811140993
1,1,331100,L2,0.3312436,5.811140993
1,1,922683,L2,0.4451807,5.811140993
0,1,959490,L2,0.4009646,5.811140993
1,1,379265,L2,0.2967806,5.811140993
0,1,774770,L2,1.3587076,5.811140993
0,1,302458,L2,0.4458339,5.811140993
0,1,452163,L2,0.3815789,5.811140993
0,1,792988,L2,0.4099676,5.811140993
0,1,173085,L2,0.3852401,5.811140993
0,1,911462,L2,0.8201941,5.811140993
0,1,929015,L2,0.3467742,5.811140993
1,1,617211,L2,0.5441912,5.811140993
0,1,901980,L2,0.3706889,5.811140993
1,1,697259,L2,0.7516326,5.811140993
0,1,871398,L2,0.7789997,5.811140993
1,1,964675,L2,0.5153772,5.811140993
1,1,929015,L2,0.2898153,5.811140993
1,1,452163,L2,0.3429546,5.811140993
1,1,15711,L2,0.314756,5.811140993
0,1,379265,L2,0.3884824,5.811140993
0,1,586804,L2,0.5056078,5.811140993
1,1,69771,L2,0.4785809,5.811140993
1,1,700064,L2,0.4872435,5.811140993
0,1,514305,L2,0.3267674,5.811140993
1,1,864280,L2,0.4087752,5.811140993
0,1,373596,L2,0.4153287,5.811140993
1,1,959490,L2,0.3475846,5.811140993
1,1,871398,L2,0.8212134,5.811140993
0,1,648557,L2,0.4525285,5.811140993
1,1,216249,L2,0.2888493,5.811140993
0,1,752128,L2,0.3571991,5.811140993
0,1,922683,L2,0.3876155,5.811140993
1,1,154393,L2,0.2921307,5.811140993
1,1,607827,L2,0.2780341,5.811140993
0,1,631538,L2,0.4175628,5.811140993
0,1,85913,L2,0.3832622,5.811140993
0,1,697760,L2,0.6254497,5.811140993
0,1,964675,L2,0.3933259,5.811140993
1,1,108486,L2,1.1055554,5.811140993
1,1,159491,L2,0.361014,5.811140993
0,1,735448,L2,0.3567932,5.811140993
1,1,862825,L2,0.4728694,5.811140993
1,1,792988,L2,0.4353298,5.811140993
1,1,248930,L2,-0.7077361,5.811140993
1,1,998663,L2,0.2962708,5.811140993
0,1,544005,L2,0.5854988,5.811140993
0,1,108486,L2,0.5841637,5.811140993
0,1,998663,L2,0.3265985,5.811140993
1,1,901980,L2,0.283547,5.811140993
1,1,911462,L2,0.4296463,5.811140993
0,1,864280,L2,1.0302869,5.811140993
1,1,631538,L2,0.3505977,5.811140993
0,1,216249,L2,0.3702184,5.811140993
1,1,790740,L2,0.3588301,5.811140993
1,1,783049,L2,0.4732073,5.811140993
0,1,843976,L2,0.3424512,5.811140993
1,1,717501,L2,0.8641678,5.811140993
1,1,702640,L2,0.5233614,5.811140993
1,1,514305,L2,0.3471563,5.811140993
0,1,716031,L2,0.5110256,5.811140993
1,1,183117,L2,0.633775,5.811140993
0,1,917009,L2,0.3309309,5.811140993
0,1,147512,L2,0.2675034,5.811140993
0,1,248930,L2,-0.7085672,5.811140993
1,1,173085,L2,0.3327048,5.811140993
1,1,501349,L2,0.4164241,5.811140993
0,1,331100,L2,0.3322141,5.811140993
0,1,376188,L2,0.1408774,5.811140993
1,1,373596,L2,0.3110966,5.811140993
1,1,774770,L2,0.4712385,5.811140993
1,1,187490,L2,0.2376587,5.811140993
0,1,15711,L2,0.4408904,5.811140993
0,1,501349,L2,0.4680369,5.811140993
1,1,316397,L2,0.3487932,5.811140993
1,1,648557,L2,0.5986826,5.811140993
1,1,376188,L2,0.4437644,5.811140993
1,1,85913,L2,0.3806444,5.811140993
0,1,336257,L2,0.5021859,5.811140993
0,1,886168,L2,0.2988699,5.811140993
0,1,572187,L2,0.3359261,5.811140993
1,1,735448,L2,0.3044432,5.811140993
0,1,717501,L2,0.5157368,5.811140993
0,1,767065,L2,0.4209367,5.811140993
1,1,147512,L2,0.312858,5.811140993
1,1,716031,L2,0.5010573,5.811140993
1,1,586804,L2,0.6689989,5.811140993
1,1,3121,L2,0.3937814,5.811140993
1,1,572187,L2,0.2706714,5.811140993
1,1,697760,L2,0.7585424,5.811140993
0,1,783049,L2,0.8721821,5.811140993
0,1,717501,L2,0.991908,5.811140993
0,1,716031,L2,0.8082902,5.811140993
1,1,302458,L2,0.1715833,5.811140993
0,1,998663,L2,0.4087473,5.811140993
1,1,871398,L2,0.3518826,5.811140993
0,1,697259,L2,0.4317448,5.811140993
1,1,774770,L2,0.3320672,5.811140993
1,1,862825,L2,0.3009233,5.811140993
1,1,607827,L2,0.4549491,5.811140993
0,1,929015,L2,0.2331367,5.811140993
1,1,617211,L2,0.5280148,5.811140993
1,1,752128,L2,0.3050988,5.811140993
0,1,447513,L2,0.7217975,5.811140993
1,1,336257,L2,0.4940393,5.811140993
1,1,306328,L2,0.3506379,5.811140993
1,1,767065,L2,1.2653691,5.811140993
0,1,3121,L2,0.6336126,5.811140993
0,1,697760,L2,1.917879,5.811140993
1,1,154393,L2,0.1375787,5.811140993
1,1,187490,L2,0.2399039,5.811140993
1,1,376188,L2,0.4418821,5.811140993
1,1,85913,L2,0.2934758,5.811140993
0,1,871398,L2,0.5224986,5.811140993
0,1,586804,L2,0.342273,5.811140993
1,1,514305,L2,0.2881285,5.811140993
1,1,922683,L2,0.4442374,5.811140993
1,1,331100,L2,0.387142,5.811140993
0,1,302458,L2,0.3014078,5.811140993
1,1,447513,L2,0.6764404,5.811140993
0,1,864280,L2,0.5230886,5.811140993
0,1,735448,L2,0.4308019,5.811140993
1,1,648557,L2,0.4176256,5.811140993
0,1,331100,L2,0.3460038,5.811140993
0,1,901980,L2,0.7673534,5.811140993
1,1,998663,L2,0.3335467,5.811140993
0,1,173085,L2,0.3376542,5.811140993
1,1,216249,L2,0.3084174,5.811140993
1,1,929015,L2,0.7523106,5.811140993
0,1,911462,L2,0.5940185,5.811140993
0,1,917009,L2,0.3067446,5.811140993
1,1,792988,L2,0.5373013,5.811140993
0,1,648557,L2,0.4601748,5.811140993
1,1,716031,L2,0.4183813,5.811140993
1,1,3121,L2,0.4179043,5.811140993
0,1,251621,L2,0.5315836,5.811140993
0,1,572187,L2,0.3012827,5.811140993
1,1,316397,L2,0.3563158,5.811140993
1,1,631538,L2,0.2427188,5.811140993
1,1,544005,L2,0.4287997,5.811140993
0,1,700064,L2,0.2297038,5.811140993
0,1,187490,L2,0.2986126,5.811140993
0,1,631538,L2,0.4591444,5.811140993
1,1,901980,L2,0.3509517,5.811140993
1,1,251621,L2,0.3407548,5.811140993
1,1,672285,L2,0.4047994,5.811140993
0,1,501349,L2,0.3872786,5.811140993
1,1,248930,L2,-0.8780855,5.811140993
0,1,85913,L2,0.4569841,5.811140993
1,1,697259,L2,0.8260289,5.811140993
0,1,336257,L2,0.4413738,5.811140993
1,1,717501,L2,0.5794643,5.811140993
0,1,154393,L2,0.3529438,5.811140993
1,1,159491,L2,0.3608873,5.811140993
0,1,108486,L2,0.5870349,5.811140993
1,1,735448,L2,0.5722239,5.811140993
1,1,964675,L2,0.5377894,5.811140993
0,1,316397,L2,0.3808316,5.811140993
1,1,917009,L2,0.2188644,5.811140993
1,1,173085,L2,0.3152954,5.811140993
1,1,702640,L2,0.4426623,5.811140993
1,1,911462,L2,0.4302012,5.811140993
1,1,373596,L2,0.2479625,5.811140993
0,1,248930,L2,-0.8548203,5.811140993
1,1,886168,L2,0.3164997,5.811140993
0,1,15711,L2,0.4335492,5.811140993
1,1,452163,L2,0.2357212,5.811140993
0,1,790740,L2,0.754242,5.811140993
0,1,183117,L2,0.8015189,5.811140993
1,1,843976,L2,0.2604484,5.811140993
0,1,774770,L2,0.6934903,5.811140993
0,0,514305,L2,0.5929445,5.811140993
1,1,379265,L2,0.3383993,5.811140993
0,1,452163,L2,0.3498428,5.811140993
1,1,586804,L2,0.4419258,5.811140993
0,1,607827,L2,0.7852562,5.811140993
1,1,69771,L2,0.4888953,5.811140993
1,1,572187,L2,0.2278217,5.811140993
0,1,922683,L2,0.5382678,5.811140993
1,1,15711,L2,0.1773816,5.811140993
1,1,700064,L2,0.2296321,5.811140993
1,1,959490,L2,0.4097206,5.811140993
0,1,843976,L2,1.4120631,5.811140993
0,1,959490,L2,0.3328469,5.811140993
1,1,697760,L2,0.6925656,5.811140993
0,1,617211,L2,0.2678745,5.811140993
0,1,379265,L2,0.5002651,5.811140993
1,1,501349,L2,0.2787865,5.811140993
0,1,752128,L2,0.7076649,5.811140993
0,1,964675,L2,0.2710858,5.811140993
0,1,672285,L2,0.4447084,5.811140993
0,1,702640,L2,0.4886972,5.811140993
0,1,373596,L2,0.5498981,5.811140993
0,1,767065,L2,0.6564158,5.811140993
1,1,783049,L2,0.3275897,5.811140993
0,1,69771,L2,0.6248663,5.811140993
0,1,147512,L2,0.7893329,5.811140993
1,1,183117,L2,0.3856235,5.811140993
1,1,864280,L2,0.3217692,5.811140993
0,1,862825,L2,0.3721554,5.811140993
1,1,147512,L2,0.249589,5.811140993
1,1,108486,L2,0.5030618,5.811140993
1,1,790740,L2,0.21995,5.811140993
0,1,159491,L2,0.4170158,5.811140993
0,1,306328,L2,0.514874,5.811140993
0,0,544005,L2,0.3708068,5.811140993
0,1,216249,L2,0.4307803,5.811140993
0,1,792988,L2,0.4275081,5.811140993
1,1,514305,L2,0.2108755,4.574710979
1,1,376188,L2,0.5372966,4.574710979
1,1,700064,L2,0.1197848,4.574710979
1,1,716031,L2,0.4088067,4.574710979
1,1,607827,L2,0.5407391,4.574710979
1,1,173085,L2,0.1125208,4.574710979
1,1,998663,L2,0.1720227,4.574710979
0,1,154393,L2,0.2275969,4.574710979
1,1,251621,L2,0.6572226,4.574710979
1,1,717501,L2,0.4099152,4.574710979
0,1,792988,L2,0.2717306,4.574710979
0,1,702640,L2,0.3758868,4.574710979
1,1,316397,L2,0.2044194,4.574710979
0,1,843976,L2,0.4631781,4.574710979
1,1,108486,L2,0.4415773,4.574710979
1,1,248930,L2,-1.8994729,4.574710979
0,1,607827,L2,0.3313379,4.574710979
0,1,376188,L2,-1.3959116,4.574710979
1,1,85913,L2,0.2887578,4.574710979
1,1,792988,L2,0.1939107,4.574710979
1,1,15711,L2,0.1431612,4.574710979
0,1,617211,L2,0.2735259,4.574710979
0,1,700064,L2,0.2135308,4.574710979
1,1,959490,L2,0.5978634,4.574710979
1,1,373596,L2,0.2360307,4.574710979
0,1,964675,L2,0.1294438,4.574710979
0,1,922683,L2,0.4547009,4.574710979
0,1,183117,L2,0.3773312,4.574710979
0,1,929015,L2,0.1960104,4.574710979
0,1,648557,L2,0.3499027,4.574710979
0,1,862825,L2,0.213803,4.574710979
1,1,964675,L2,0.1849189,4.574710979
1,1,617211,L2,0.3645527,4.574710979
0,1,572187,L2,0.2687001,4.574710979
1,1,501349,L2,0.3255848,4.574710979
0,1,911462,L2,0.286097,4.574710979
0,1,306328,L2,0.3718585,4.574710979
0,1,3121,L2,0.2203316,4.574710979
0,1,159491,L2,0.2738697,4.574710979
0,1,717501,L2,0.2368222,4.574710979
1,1,843976,L2,0.4118107,4.574710979
0,1,331100,L2,0.2661378,4.574710979
0,1,959490,L2,0.5171153,4.574710979
1,1,452163,L2,0.0822004,4.574710979
0,1,790740,L2,0.2756557,4.574710979
0,1,302458,L2,0.4952029,4.574710979
1,1,216249,L2,0.0952089,4.574710979
0,1,248930,L2,-1.7803412,4.574710979
1,1,886168,L2,0.4117576,4.574710979
0,1,901980,L2,0.2865889,4.574710979
0,0,697259,L2,0.4326117,4.574710979
0,1,998663,L2,0.3232733,4.574710979
0,1,316397,L2,0.324193,4.574710979
0,1,336257,L2,0.2949657,4.574710979
0,1,864280,L2,0.3228291,4.574710979
0,1,69771,L2,0.5600215,4.574710979
0,1,735448,L2,0.2913907,4.574710979
1,1,697259,L2,0.2522605,4.574710979
1,1,306328,L2,0.4106205,4.574710979
0,1,15711,L2,0.3362982,4.574710979
1,1,917009,L2,0.1720779,4.574710979
0,1,447513,L2,0.2506632,4.574710979
1,1,331100,L2,0.2219154,4.574710979
1,1,864280,L2,0.279747,4.574710979
0,1,774770,L2,0.3051645,4.574710979
1,1,922683,L2,0.3640235,4.574710979
1,1,871398,L2,0.3076555,4.574710979
1,1,69771,L2,0.2886961,4.574710979
1,1,702640,L2,0.3304588,4.574710979
1,1,697760,L2,0.6759888,4.574710979
0,1,85913,L2,0.4376423,4.574710979
1,1,767065,L2,0.3007256,4.574710979
1,1,3121,L2,0.2742987,4.574710979
1,1,901980,L2,0.09645,4.574710979
1,1,648557,L2,0.4898876,4.574710979
0,1,871398,L2,0.4125106,4.574710979
1,1,790740,L2,0.1403948,4.574710979
0,1,251621,L2,-1.7071005,4.574710979
0,1,672285,L2,0.4352214,4.574710979
1,1,572187,L2,0.2018527,4.574710979
1,1,447513,L2,0.3731292,4.574710979
1,1,544005,L2,0.269317,4.574710979
0,1,767065,L2,0.2530947,4.574710979
1,1,752128,L2,0.1810256,4.574710979
0,1,783049,L2,0.4997827,4.574710979
0,1,716031,L2,0.4637087,4.574710979
1,1,862825,L2,0.1163243,4.574710979
0,0,187490,L2,0.2846157,4.574710979
0,1,216249,L2,0.1462976,4.574710979
1,1,336257,L2,0.2936515,4.574710979
0,1,917009,L2,0.300931,4.574710979
0,1,373596,L2,0.2575593,4.574710979
1,1,631538,L2,0.2906227,4.574710979
0,1,752128,L2,0.1699949,4.574710979
1,1,187490,L2,0.2524584,4.574710979
0,1,586804,L2,0.4528328,4.574710979
1,1,774770,L2,0.7385368,4.574710979
0,1,514305,L2,0.3094821,4.574710979
0,1,379265,L2,0.2827559,4.574710979
0,1,631538,L2,0.4346149,4.574710979
0,1,886168,L2,0.3066632,4.574710979
1,1,911462,L2,0.3005388,4.574710979
1,1,929015,L2,0.4334328,4.574710979
1,1,159491,L2,0.3003385,4.574710979
1,1,379265,L2,0.290567,4.574710979
1,1,783049,L2,0.2131603,4.574710979
1,1,586804,L2,0.3534202,4.574710979
1,1,183117,L2,0.2176867,4.574710979
0,1,501349,L2,0.286295,4.574710979
0,1,544005,L2,0.2710499,4.574710979
0,1,147512,L2,0.219463,4.574710979
1,1,672285,L2,0.247643,4.574710979
0,1,173085,L2,0.3195593,4.574710979
1,1,302458,L2,0.2217385,4.574710979
0,1,452163,L2,0.2839749,4.574710979
1,1,154393,L2,0.1376249,4.574710979
1,1,147512,L2,0.1251509,4.574710979
1,1,735448,L2,0.1617716,4.574710979
0,1,108486,L2,0.2417027,4.574710979
0,1,901980,L2,0.4315117,4.574710979
1,1,700064,L2,0.1023195,4.574710979
1,1,648557,L2,0.5145803,4.574710979
1,1,735448,L2,0.2782083,4.574710979
1,1,248930,L2,-1.9569844,4.574710979
1,1,672285,L2,0.9142243,4.574710979
1,1,15711,L2,0.103167,4.574710979
1,1,379265,L2,0.373007,4.574710979
1,1,544005,L2,0.2678206,4.574710979
1,1,843976,L2,0.2412228,4.574710979
1,1,959490,L2,0.3469021,4.574710979
0,1,790740,L2,0.2597962,4.574710979
0,1,154393,L2,0.2618336,4.574710979
0,1,922683,L2,0.3286432,4.574710979
1,1,447513,L2,0.4751143,4.574710979
0,1,3121,L2,0.3145863,4.574710979
0,1,774770,L2,0.5370519,4.574710979
0,1,700064,L2,-0.19347,4.574710979
0,1,147512,L2,0.6733258,4.574710979
0,1,69771,L2,0.289828,4.574710979
0,1,159491,L2,0.2719023,4.574710979
1,1,251621,L2,0.2934803,4.574710979
0,1,336257,L2,0.5184518,4.574710979
0,1,85913,L2,0.3458632,4.574710979
0,1,752128,L2,0.2210286,4.574710979
0,1,862825,L2,0.1962816,4.574710979
1,1,108486,L2,0.3383758,4.574710979
1,1,631538,L2,0.3047796,4.574710979
1,1,607827,L2,0.3002561,4.574710979
1,1,929015,L2,0.207899,4.574710979
0,1,672285,L2,0.910584,4.574710979
1,1,922683,L2,0.2524692,4.574710979
1,1,336257,L2,0.2467189,4.574710979
0,1,379265,L2,0.4105264,4.574710979
0,1,697259,L2,0.9962848,4.574710979
0,0,886168,L2,0.4974883,4.574710979
1,1,697760,L2,0.4975223,4.574710979
0,1,376188,L2,-1.6638269,4.574710979
0,1,15711,L2,0.4058193,4.574710979
0,0,316397,L2,0.2604081,4.574710979
1,1,586804,L2,0.5152024,4.574710979
1,1,376188,L2,0.4668786,4.574710979
0,0,917009,L2,0.3583096,4.574710979
1,1,183117,L2,0.223575,4.574710979
0,1,373596,L2,0.3466072,4.574710979
0,1,216249,L2,0.3528438,4.574710979
0,1,911462,L2,0.5392193,4.574710979
0,1,792988,L2,0.3497338,4.574710979
0,1,173085,L2,0.4586233,4.574710979
1,1,964675,L2,0.2383698,4.574710979
0,1,183117,L2,1.0194492,4.574710979
0,1,306328,L2,0.3642238,4.574710979
0,1,843976,L2,0.554601,4.574710979
1,1,864280,L2,0.3245453,4.574710979
1,1,306328,L2,0.3261356,4.574710979
1,1,331100,L2,0.1557265,4.574710979
0,1,864280,L2,0.3133718,4.574710979
1,1,147512,L2,0.17783,4.574710979
0,1,108486,L2,0.4914976,4.574710979
1,1,173085,L2,0.1451802,4.574710979
1,1,911462,L2,0.3293265,4.574710979
0,1,767065,L2,0.2429108,4.574710979
1,1,998663,L2,0.2011549,4.574710979
1,1,69771,L2,0.2666822,4.574710979
0,1,964675,L2,0.273437,4.574710979
1,1,316397,L2,0.2187933,4.574710979
1,1,702640,L2,0.1303169,4.574710979
1,1,216249,L2,0.1919584,4.574710979
1,1,501349,L2,0.2322544,4.574710979
1,1,302458,L2,0.2991834,4.574710979
1,1,159491,L2,0.3139807,4.574710979
1,1,790740,L2,0.1010097,4.574710979
0,1,187490,L2,0.2717676,4.574710979
1,0,697259,L2,0.3798076,4.574710979
0,1,572187,L2,0.2631468,4.574710979
0,1,248930,L2,-1.8375632,4.574710979
1,0,514305,L2,0.3916566,4.574710979
1,1,886168,L2,0.3888611,4.574710979
0,1,929015,L2,0.4158224,4.574710979
1,1,717501,L2,0.3159438,4.574710979
1,1,3121,L2,0.2944911,4.574710979
0,1,702640,L2,0.1929463,4.574710979
1,1,917009,L2,0.1029651,4.574710979
0,1,783049,L2,0.2989595,4.574710979
0,1,959490,L2,0.4658602,4.574710979
0,1,717501,L2,0.3549955,4.574710979
1,1,617211,L2,0.2632001,4.574710979
1,1,716031,L2,0.3903306,4.574710979
0,1,998663,L2,0.3647698,4.574710979
1,1,767065,L2,0.1602754,4.574710979
1,1,572187,L2,0.1717887,4.574710979
0,0,648557,L2,0.6847352,4.574710979
0,1,251621,L2,0.4365127,4.574710979
1,1,901980,L2,0.1515378,4.574710979
0,1,735448,L2,0.3087384,4.574710979
1,1,792988,L2,0.4149312,4.574710979
1,1,752128,L2,0.0147725,4.574710979
0,1,452163,L2,0.3307571,4.574710979
0,1,617211,L2,0.2567822,4.574710979
1,1,373596,L2,0.4785201,4.574710979
1,1,452163,L2,0.1759484,4.574710979
0,1,447513,L2,0.3218924,4.574710979
1,1,783049,L2,0.2982902,4.574710979
0,1,631538,L2,0.4892043,4.574710979
0,1,544005,L2,0.3290603,4.574710979
1,1,774770,L2,0.3359963,4.574710979
0,1,716031,L2,0.4801431,4.574710979
1,1,85913,L2,0.2309536,4.574710979
0,1,697760,L2,0.6376067,4.574710979
1,1,154393,L2,0.1574424,4.574710979
0,1,586804,L2,0.4065586,4.574710979
0,1,871398,L2,0.4146543,4.574710979
1,1,187490,L2,0.2628684,4.574710979
0,1,607827,L2,0.4504068,4.574710979
0,1,514305,L2,0.8037133,4.574710979
0,1,331100,L2,0.5890367,4.574710979
0,1,302458,L2,0.3001423,4.574710979
1,1,871398,L2,0.3483613,4.574710979
1,1,862825,L2,0.2570314,4.574710979
0,1,501349,L2,0.3651267,4.574710979
0,1,631538,L2,0.8562685,4.912654886
1,1,862825,L2,0.2166255,4.912654886
0,1,607827,L2,0.6886013,4.912654886
0,1,248930,L2,-0.755517,4.912654886
1,1,929015,L2,0.1439134,4.912654886
1,1,702640,L2,0.7241131,4.912654886
0,1,783049,L2,0.3694949,4.912654886
0,1,871398,L2,0.2277836,4.912654886
1,1,917009,L2,0.2523926,4.912654886
1,1,316397,L2,0.3433567,4.912654886
1,1,331100,L2,0.043272,4.912654886
1,1,108486,L2,0.1514242,4.912654886
1,1,959490,L2,0.3488253,4.912654886
0,1,336257,L2,0.4519238,4.912654886
0,1,964675,L2,0.2455926,4.912654886
0,1,700064,L2,0.191518,4.912654886
0,1,251621,L2,0.6561388,4.912654886
0,1,572187,L2,0.3906107,4.912654886
0,1,702640,L2,0.5341109,4.912654886
1,1,376188,L2,-1.0330703,4.912654886
1,1,607827,L2,0.2254084,4.912654886
1,1,501349,L2,0.2248215,4.912654886
1,1,187490,L2,0.1886259,4.912654886
1,1,544005,L2,0.2155686,4.912654886
1,1,617211,L2,0.4136561,4.912654886
0,1,452163,L2,0.6140106,4.912654886
0,1,183117,L2,0.673645,4.912654886
1,1,216249,L2,0.1416598,4.912654886
0,1,108486,L2,0.3057909,4.912654886
1,1,183117,L2,0.3815199,4.912654886
0,1,922683,L2,0.4457104,4.912654886
1,1,147512,L2,0.184887,4.912654886
1,1,735448,L2,0.2727335,4.912654886
0,1,306328,L2,0.5506345,4.912654886
1,1,843976,L2,0.1734101,4.912654886
1,1,697259,L2,0.3154504,4.912654886
0,1,767065,L2,0.2232433,4.912654886
0,1,735448,L2,0.4415007,4.912654886
1,1,672285,L2,0.4556972,4.912654886
1,1,248930,L2,-1.5746546,4.912654886
1,1,998663,L2,0.2651117,4.912654886
1,1,586804,L2,0.4471732,4.912654886
0,1,774770,L2,0.4076645,4.912654886
0,1,716031,L2,0.3992366,4.912654886
0,1,373596,L2,0.3616658,4.912654886
1,1,251621,L2,0.5900456,4.912654886
0,1,302458,L2,0.4681801,4.912654886
0,1,843976,L2,0.3298884,4.912654886
0,1,697259,L2,0.5360046,4.912654886
0,1,147512,L2,0.5335939,4.912654886
0,1,379265,L2,0.2912133,4.912654886
1,1,901980,L2,0.1987881,4.912654886
1,1,85913,L2,0.3807411,4.912654886
1,1,783049,L2,0.5144267,4.912654886
0,1,187490,L2,0.439081,4.912654886
1,1,648557,L2,0.3102096,4.912654886
0,1,544005,L2,0.3500122,4.912654886
0,1,447513,L2,0.41114,4.912654886
0,1,752128,L2,0.312598,4.912654886
0,1,862825,L2,0.3094187,4.912654886
1,1,447513,L2,0.5570803,4.912654886
0,1,85913,L2,0.4636152,4.912654886
1,1,15711,L2,0.1146203,4.912654886
1,1,173085,L2,0.0339202,4.912654886
1,1,69771,L2,0.3694808,4.912654886
1,1,697760,L2,0.5101288,4.912654886
0,1,959490,L2,0.3412979,4.912654886
0,1,717501,L2,0.5204413,4.912654886
1,1,767065,L2,0.3402344,4.912654886
0,1,376188,L2,-1.3243476,4.912654886
0,1,998663,L2,0.6010499,4.912654886
1,1,514305,L2,0.2372813,4.912654886
1,1,964675,L2,0.8034715,4.912654886
1,1,336257,L2,0.2712919,4.912654886
1,1,452163,L2,0.1591393,4.912654886
0,1,790740,L2,0.3932362,4.912654886
0,1,514305,L2,0.3259686,4.912654886
1,1,774770,L2,0.4127282,4.912654886
0,1,792988,L2,0.3333787,4.912654886
0,1,159491,L2,0.3836493,4.912654886
1,1,306328,L2,0.4606932,4.912654886
0,1,901980,L2,0.2514429,4.912654886
0,1,316397,L2,0.310031,4.912654886
0,1,154393,L2,0.3474914,4.912654886
0,1,15711,L2,0.4209131,4.912654886
0,0,69771,L2,0.3666882,4.912654886
1,1,373596,L2,0.4271986,4.912654886
0,1,648557,L2,0.4828794,4.912654886
1,1,792988,L2,0.3776493,4.912654886
1,1,717501,L2,0.14943,4.912654886
1,1,716031,L2,0.4281391,4.912654886
0,1,911462,L2,0.3363853,4.912654886
1,1,752128,L2,0.1381183,4.912654886
0,1,917009,L2,0.5029014,4.912654886
0,1,501349,L2,0.366858,4.912654886
0,1,173085,L2,0.3872002,4.912654886
0,1,331100,L2,0.2516699,4.912654886
0,1,216249,L2,0.2777783,4.912654886
1,1,154393,L2,0.0820899,4.912654886
1,1,379265,L2,0.3097027,4.912654886
0,1,672285,L2,0.4253576,4.912654886
1,1,631538,L2,0.3946703,4.912654886
0,1,3121,L2,0.3118966,4.912654886
1,1,700064,L2,0.0832127,4.912654886
1,1,790740,L2,0.2700035,4.912654886
1,1,572187,L2,0.1489161,4.912654886
1,1,3121,L2,0.3497374,4.912654886
1,1,922683,L2,0.2024348,4.912654886
0,1,864280,L2,0.5665461,4.912654886
1,1,871398,L2,0.3618471,4.912654886
1,1,302458,L2,0.0880589,4.912654886
0,1,586804,L2,0.3528558,4.912654886
1,1,864280,L2,0.1715615,4.912654886
1,1,911462,L2,0.4093614,4.912654886
0,1,617211,L2,0.3297898,4.912654886
0,1,697760,L2,0.6786572,4.912654886
1,1,159491,L2,0.262022,4.912654886
1,1,998663,L2,0.0921729,4.912654886
1,1,700064,L2,0.0496316,4.912654886
1,1,648557,L2,0.2660907,4.912654886
0,1,717501,L2,0.3223815,4.912654886
1,1,501349,L2,0.3167927,4.912654886
0,1,183117,L2,0.3764986,4.912654886
0,1,843976,L2,0.8950622,4.912654886
1,1,702640,L2,0.4117916,4.912654886
1,1,697760,L2,0.7792083,4.912654886
1,1,336257,L2,0.2625571,4.912654886
0,1,964675,L2,0.3906121,4.912654886
0,1,631538,L2,0.5674802,4.912654886
0,1,792988,L2,0.369343,4.912654886
0,1,672285,L2,0.3911373,4.912654886
0,1,735448,L2,0.2651643,4.912654886
0,1,929015,L2,0.1242098,4.912654886
0,1,159491,L2,0.2056338,4.912654886
0,1,336257,L2,0.5537323,4.912654886
1,1,447513,L2,0.4649826,4.912654886
1,1,911462,L2,0.374405,4.912654886
1,1,716031,L2,0.4930331,4.912654886
1,1,843976,L2,0.5609543,4.912654886
1,1,15711,L2,0.0115053,4.912654886
1,1,767065,L2,0.2730433,4.912654886
1,1,379265,L2,0.3490906,4.912654886
0,1,864280,L2,0.0793771,4.912654886
1,1,85913,L2,0.3102976,4.912654886
0,1,3121,L2,0.4255687,4.912654886
1,1,452163,L2,0.1039452,4.912654886
0,1,783049,L2,0.7713894,4.912654886
1,1,572187,L2,0.2370896,4.912654886
1,1,774770,L2,0.4742631,4.912654886
0,1,251621,L2,0.4078667,4.912654886
1,1,792988,L2,0.0434318,4.912654886
0,1,862825,L2,0.2762796,4.912654886
0,1,376188,L2,-1.1055218,4.912654886
0,1,447513,L2,0.3674147,4.912654886
1,1,752128,L2,0.2831688,4.912654886
0,1,697259,L2,0.6206738,4.912654886
1,1,147512,L2,0.1190617,4.912654886
0,1,216249,L2,0.750121,4.912654886
0,1,790740,L2,0.2712127,4.912654886
1,1,917009,L2,0.1415893,4.912654886
1,1,790740,L2,0.2696809,4.912654886
0,1,373596,L2,0.4946489,4.912654886
0,1,302458,L2,0.2149874,4.912654886
1,1,735448,L2,0.1771185,4.912654886
0,1,697760,L2,0.6816368,4.912654886
1,1,886168,L2,0.3951905,4.912654886
1,1,514305,L2,0.3293803,4.912654886
0,1,871398,L2,0.7397533,4.912654886
0,1,452163,L2,0.247744,4.912654886
1,1,672285,L2,0.6900101,4.912654886
1,1,173085,L2,0.319535,4.912654886
0,1,998663,L2,0.2596764,4.912654886
1,1,964675,L2,0.0819366,4.912654886
0,1,331100,L2,0.4048293,4.912654886
0,1,617211,L2,0.3963082,4.912654886
1,1,617211,L2,0.511153,4.912654886
0,1,154393,L2,0.3543982,4.912654886
0,1,700064,L2,0.2728489,4.912654886
1,1,373596,L2,0.2796228,4.912654886
1,1,871398,L2,0.2728767,4.912654886
0,1,917009,L2,0.3434232,4.912654886
0,1,501349,L2,0.4169288,4.912654886
1,1,251621,L2,0.3679327,4.912654886
0,1,248930,L2,-1.6783269,4.912654886
1,1,331100,L2,0.2078916,4.912654886
1,1,922683,L2,0.3130173,4.912654886
0,1,607827,L2,0.7735397,4.912654886
1,1,783049,L2,0.3112806,4.912654886
0,1,752128,L2,0.3797193,4.912654886
1,1,216249,L2,0.0749898,4.912654886
1,1,187490,L2,0.2339571,4.912654886
1,1,302458,L2,0.0472343,4.912654886
1,1,586804,L2,0.9060042,4.912654886
0,1,901980,L2,0.2953481,4.912654886
0,1,648557,L2,0.4491773,4.912654886
0,1,379265,L2,0.2872038,4.912654886
0,1,147512,L2,0.2861437,4.912654886
1,1,248930,L2,-1.6122151,4.912654886
0,1,85913,L2,0.5628605,4.912654886
1,1,864280,L2,0.3736131,4.912654886
0,1,173085,L2,0.3330778,4.912654886
1,1,69771,L2,0.4846472,4.912654886
0,1,922683,L2,0.369164,4.912654886
1,1,901980,L2,0.2482262,4.912654886
1,1,697259,L2,0.3535579,4.912654886
1,1,376188,L2,0.4139061,4.912654886
0,1,15711,L2,0.280267,4.912654886
1,1,183117,L2,0.4975307,4.912654886
0,1,316397,L2,0.2161067,4.912654886
1,1,631538,L2,0.2646514,4.912654886
1,1,159491,L2,0.2814276,4.912654886
1,1,607827,L2,0.1642419,4.912654886
1,1,316397,L2,0.2691438,4.912654886
1,1,929015,L2,0.7746391,4.912654886
0,1,306328,L2,0.4003662,4.912654886
0,1,911462,L2,-0.0229324,4.912654886
1,1,306328,L2,0.328248,4.912654886
0,1,886168,L2,0.4877694,4.912654886
1,1,154393,L2,0.0779795,4.912654886
0,1,716031,L2,0.5155284,4.912654886
1,1,108486,L2,0.451685,4.912654886
1,1,3121,L2,0.3182977,4.912654886
1,1,959490,L2,0.5183739,4.912654886
0,1,572187,L2,0.2973761,4.912654886
0,1,108486,L2,0.4960139,4.912654886
1,1,717501,L2,0.3632796,4.912654886
0,1,959490,L2,0.398304,4.912654886
0,1,514305,L2,0.6084158,4.912654886
1,1,862825,L2,0.1884489,4.912654886
0,1,586804,L2,0.3911378,4.912654886
1,1,544005,L2,0.3570977,4.912654886
0,1,187490,L2,0.3524986,4.912654886
0,1,767065,L2,0.4616115,4.912654886
0,1,702640,L2,0.3349208,4.912654886
1,1,379265,L2,-0.0430532,3.496507561
0,1,501349,L2,0.4983569,3.496507561
1,1,752128,L2,0.2061642,3.496507561
0,1,700064,L2,0.1525287,3.496507561
0,1,697259,L2,0.5483686,3.496507561
0,1,248930,L2,-1.8559237,3.496507561
0,1,783049,L2,0.8615917,3.496507561
0,1,964675,L2,0.3899658,3.496507561
1,1,544005,L2,0.3047239,3.496507561
1,1,316397,L2,0.383644,3.496507561
1,1,790740,L2,0.2355418,3.496507561
0,1,697760,L2,0.5897626,3.496507561
1,1,3121,L2,0.4965059,3.496507561
0,1,617211,L2,0.9097816,3.496507561
0,1,586804,L2,0.5933008,3.496507561
0,1,108486,L2,0.2176945,3.496507561
1,1,843976,L2,0.1957279,3.496507561
0,1,607827,L2,0.4390977,3.496507561
1,1,514305,L2,0.3646933,3.496507561
1,1,672285,L2,0.3666459,3.496507561
1,1,306328,L2,0.3286598,3.496507561
1,1,147512,L2,0.157483,3.496507561
1,1,501349,L2,0.3493082,3.496507561
0,1,572187,L2,0.2990678,3.496507561
0,1,792988,L2,0.3594024,3.496507561
0,1,922683,L2,0.294084,3.496507561
1,1,767065,L2,0.3393947,3.496507561
1,1,702640,L2,0.6386936,3.496507561
0,1,917009,L2,0.2798184,3.496507561
0,1,306328,L2,0.5105046,3.496507561
0,0,716031,L2,0.9761766,3.496507561
0,1,3121,L2,0.4647854,3.496507561
0,1,452163,L2,0.3597605,3.496507561
0,1,331100,L2,-0.1400599,3.496507561
1,1,183117,L2,0.2286037,3.496507561
1,1,774770,L2,0.6819595,3.496507561
1,1,871398,L2,0.4319583,3.496507561
0,1,183117,L2,0.427539,3.496507561
0,1,187490,L2,0.3322265,3.496507561
0,1,767065,L2,0.4168176,3.496507561
0,1,901980,L2,0.4783978,3.496507561
0,1,316397,L2,0.4852063,3.496507561
1,1,617211,L2,0.4168715,3.496507561
1,1,373596,L2,0.3385446,3.496507561
0,1,717501,L2,0.621543,3.496507561
1,1,959490,L2,0.4179407,3.496507561
0,1,672285,L2,0.3592609,3.496507561
1,1,697760,L2,0.3859177,3.496507561
0,1,514305,L2,0.6131859,3.496507561
0,1,752128,L2,0.2228174,3.496507561
1,1,792988,L2,0.3826627,3.496507561
1,1,735448,L2,0.3779085,3.496507561
1,1,173085,L2,0.3781302,3.496507561
0,1,631538,L2,0.4934818,3.496507561
0,1,447513,L2,0.6013746,3.496507561
0,1,864280,L2,0.3643015,3.496507561
0,1,69771,L2,0.4480727,3.496507561
0,1,862825,L2,0.3382097,3.496507561
1,1,648557,L2,0.2919828,3.496507561
1,1,251621,L2,0.3266141,3.496507561
1,1,697259,L2,0.4017492,3.496507561
0,1,702640,L2,0.6255511,3.496507561
0,1,173085,L2,0.5323726,3.496507561
1,1,716031,L2,0.4367105,3.496507561
1,1,717501,L2,0.1564395,3.496507561
0,1,302458,L2,0.2789321,3.496507561
1,1,607827,L2,0.2986401,3.496507561
1,1,783049,L2,0.4265858,3.496507561
1,1,187490,L2,0.2837651,3.496507561
0,1,735448,L2,0.5170232,3.496507561
0,1,774770,L2,0.4211103,3.496507561
1,1,108486,L2,0.2918779,3.496507561
0,1,216249,L2,0.3701311,3.496507561
1,1,700064,L2,0.0680258,3.496507561
1,1,922683,L2,0.3631519,3.496507561
0,1,376188,L2,-1.63393,3.496507561
1,1,911462,L2,0.4031303,3.496507561
0,1,373596,L2,0.5173437,3.496507561
0,1,871398,L2,0.4521088,3.496507561
1,1,154393,L2,0.3013136,3.496507561
0,1,154393,L2,0.5218105,3.496507561
1,1,336257,L2,0.0911621,3.496507561
1,1,216249,L2,0.160429,3.496507561
0,1,15711,L2,0.2368998,3.496507561
0,1,648557,L2,0.5193116,3.496507561
0,1,85913,L2,0.4390105,3.496507561
0,1,251621,L2,0.4785398,3.496507561
0,1,998663,L2,0.3242309,3.496507561
1,1,998663,L2,0.2627038,3.496507561
0,1,544005,L2,0.48432,3.496507561
0,1,843976,L2,0.385449,3.496507561
1,1,15711,L2,0.1638459,3.496507561
1,1,901980,L2,0.5216669,3.496507561
1,1,964675,L2,0.2730452,3.496507561
1,1,572187,L2,0.2177061,3.496507561
1,1,929015,L2,0.3520487,3.496507561
1,1,302458,L2,0.2799391,3.496507561
1,0,631538,L2,0.2658604,3.496507561
0,1,886168,L2,0.675085,3.496507561
0,1,959490,L2,0.5987732,3.496507561
0,1,147512,L2,0.4991512,3.496507561
1,1,452163,L2,0.2449808,3.496507561
1,1,248930,L2,-1.8472648,3.496507561
1,1,159491,L2,0.3504781,3.496507561
0,1,336257,L2,0.5334324,3.496507561
1,1,447513,L2,0.3198038,3.496507561
1,1,376188,L2,0.5367429,3.496507561
1,1,862825,L2,0.257011,3.496507561
0,1,929015,L2,0.4288263,3.496507561
1,1,586804,L2,0.3212334,3.496507561
0,1,790740,L2,0.63571,3.496507561
1,1,85913,L2,0.4437535,3.496507561
0,1,379265,L2,0.3466333,3.496507561
0,1,911462,L2,0.6374493,3.496507561
1,1,331100,L2,0.3980811,3.496507561
0,1,159491,L2,0.3808256,3.496507561
1,1,69771,L2,0.3863714,3.496507561
1,1,917009,L2,0.2055677,3.496507561
1,1,864280,L2,1.2235153,3.496507561
1,1,886168,L2,0.4411224,3.496507561
1,1,379265,L2,0.3098865,3.496507561
1,1,306328,L2,0.290118,3.496507561
0,1,964675,L2,0.3216116,3.496507561
1,1,911462,L2,0.3401423,3.496507561
0,1,15711,L2,0.5655866,3.496507561
0,1,544005,L2,0.2522442,3.496507561
0,1,173085,L2,0.389888,3.496507561
1,1,69771,L2,0.3184539,3.496507561
1,1,697760,L2,0.4379759,3.496507561
0,1,697259,L2,0.4308757,3.496507561
0,1,3121,L2,0.4293466,3.496507561
0,1,864280,L2,0.382063,3.496507561
1,1,964675,L2,0.4671295,3.496507561
1,1,929015,L2,-0.2155601,3.496507561
1,1,959490,L2,0.4417568,3.496507561
0,1,917009,L2,0.2499714,3.496507561
0,1,700064,L2,0.2712326,3.496507561
1,1,752128,L2,0.2821304,3.496507561
1,1,316397,L2,0.5987033,3.496507561
1,1,572187,L2,0.2919319,3.496507561
0,1,922683,L2,0.4689451,3.496507561
0,1,248930,L2,-2.0876027,3.496507561
1,1,3121,L2,0.3924435,3.496507561
1,1,248930,L2,-1.8691565,3.496507561
1,1,792988,L2,0.4300645,3.496507561
1,1,735448,L2,0.2711448,3.496507561
0,1,672285,L2,0.4084764,3.496507561
0,1,331100,L2,0.3174263,3.496507561
0,1,586804,L2,0.5132663,3.496507561
1,1,336257,L2,0.0788569,3.496507561
0,1,929015,L2,0.4216479,3.496507561
0,1,514305,L2,0.7561995,3.496507561
0,1,501349,L2,0.3913636,3.496507561
0,1,792988,L2,0.6154793,3.496507561
0,1,783049,L2,0.4018764,3.496507561
0,1,886168,L2,0.6268089,3.496507561
0,1,790740,L2,0.3470384,3.496507561
0,1,379265,L2,0.4567059,3.496507561
1,1,331100,L2,0.2810916,3.496507561
0,1,154393,L2,0.3490729,3.496507561
0,1,183117,L2,0.6932661,3.496507561
1,1,783049,L2,0.309638,3.496507561
1,1,108486,L2,0.3098456,3.496507561
1,1,85913,L2,0.2979651,3.496507561
0,1,843976,L2,0.605489,3.496507561
0,1,697760,L2,0.3477734,3.496507561
1,1,607827,L2,0.4806411,3.496507561
1,1,302458,L2,0.1375981,3.496507561
0,1,69771,L2,0.0832072,3.496507561
1,1,767065,L2,0.4270775,3.496507561
0,1,959490,L2,0.498923,3.496507561
0,1,306328,L2,0.4374329,3.496507561
1,1,672285,L2,0.4000415,3.496507561
0,1,735448,L2,0.4024631,3.496507561
1,1,631538,L2,0.2651739,3.496507561
0,1,998663,L2,0.6040986,3.496507561
1,1,447513,L2,0.4905905,3.496507561
0,1,447513,L2,0.5223688,3.496507561
1,1,922683,L2,0.3726093,3.496507561
0,1,452163,L2,0.3438663,3.496507561
1,1,864280,L2,0.6169458,3.496507561
1,1,886168,L2,0.3935981,3.496507561
0,1,774770,L2,0.3978774,3.496507561
1,1,717501,L2,0.2152005,3.496507561
0,1,216249,L2,0.5358843,3.496507561
0,1,702640,L2,0.6323424,3.496507561
0,1,901980,L2,0.6371549,3.496507561
0,1,607827,L2,0.7028676,3.496507561
0,1,108486,L2,0.6824522,3.496507561
1,1,147512,L2,0.4629241,3.496507561
0,1,187490,L2,-0.0178626,3.496507561
0,1,159491,L2,0.3503121,3.496507561
0,1,617211,L2,0.4317794,3.496507561
0,1,648557,L2,0.3241624,3.496507561
1,1,774770,L2,0.208211,3.496507561
1,1,700064,L2,0.173159,3.496507561
1,1,376188,L2,0.4030218,3.496507561
1,1,216249,L2,0.2595612,3.496507561
0,1,752128,L2,0.3210646,3.496507561
0,1,717501,L2,0.3364205,3.496507561
0,1,862825,L2,0.4963327,3.496507561
0,1,147512,L2,0.4190108,3.496507561
0,1,376188,L2,-1.6143708,3.496507561
1,1,251621,L2,0.3297239,3.496507561
0,1,302458,L2,0.5440311,3.496507561
0,1,373596,L2,0.3579109,3.496507561
1,1,862825,L2,0.2966489,3.496507561
0,1,911462,L2,0.3571793,3.496507561
0,1,871398,L2,0.4468791,3.496507561
1,1,702640,L2,0.3678657,3.496507561
1,1,373596,L2,0.3216802,3.496507561
0,1,85913,L2,0.4241885,3.496507561
0,1,716031,L2,0.4905657,3.496507561
1,1,173085,L2,0.3118845,3.496507561
1,1,843976,L2,0.0245136,3.496507561
0,1,572187,L2,0.6961217,3.496507561
1,1,159491,L2,0.3442745,3.496507561
0,1,767065,L2,-0.4626164,3.496507561
1,1,15711,L2,0.047137,3.496507561
1,1,697259,L2,0.4783744,3.496507561
1,1,154393,L2,0.2615805,3.496507561
1,1,187490,L2,0.2742643,3.496507561
1,1,452163,L2,0.2883913,3.496507561
0,1,631538,L2,0.7879521,3.496507561
0,1,336257,L2,0.3738402,3.496507561
1,1,648557,L2,0.2315667,3.496507561
1,1,183117,L2,0.3198565,3.496507561
1,1,514305,L2,0.3711062,3.496507561
1,1,617211,L2,0.5515559,3.496507561
1,1,998663,L2,0.2694645,3.496507561
1,1,790740,L2,0.4940313,3.496507561
1,1,901980,L2,0.2259769,3.496507561
0,1,316397,L2,0.3107079,3.496507561
1,1,544005,L2,0.3670672,3.496507561
1,1,501349,L2,0.3080043,3.496507561
1,1,716031,L2,0.4787596,3.496507561
1,1,917009,L2,0.2000254,3.496507561
0,1,316397,L2,0.3132124,4.025351691
0,1,790740,L2,0.4719488,4.025351691
0,1,452163,L2,0.4950788,4.025351691
0,1,672285,L2,0.3852769,4.025351691
0,1,717501,L2,0.3105807,4.025351691
1,1,752128,L2,0.390438,4.025351691
0,1,998663,L2,0.3370518,4.025351691
1,1,147512,L2,0.3572066,4.025351691
0,1,3121,L2,0.5541942,4.025351691
0,1,917009,L2,0.4320881,4.025351691
1,0,901980,L2,0.3363588,4.025351691
1,1,917009,L2,0.179392,4.025351691
0,1,716031,L2,0.6349289,4.025351691
1,1,544005,L2,0.5619129,4.025351691
1,1,3121,L2,0.4879554,4.025351691
0,1,187490,L2,0.5190392,4.025351691
1,1,702640,L2,0.4531242,4.025351691
1,1,376188,L2,0.8280342,4.025351691
0,1,774770,L2,0.5418407,4.025351691
0,1,216249,L2,0.3339292,4.025351691
0,1,514305,L2,0.4089752,4.025351691
1,1,373596,L2,0.4375013,4.025351691
1,1,862825,L2,0.323559,4.025351691
0,1,248930,L2,-0.5508467,4.025351691
0,1,447513,L2,0.488582,4.025351691
1,1,864280,L2,0.3765038,4.025351691
1,1,964675,L2,0.3282273,4.025351691
0,1,792988,L2,0.6523277,4.025351691
0,1,964675,L2,0.3839363,4.025351691
0,1,862825,L2,0.3335623,4.025351691
1,1,251621,L2,0.5631597,4.025351691
1,1,586804,L2,0.7053496,4.025351691
0,1,617211,L2,0.3672406,4.025351691
0,1,251621,L2,0.7207241,4.025351691
1,1,792988,L2,0.454553,4.025351691
1,1,316397,L2,0.2435503,4.025351691
0,1,922683,L2,0.3764741,4.025351691
1,1,187490,L2,0.4426113,4.025351691
1,1,452163,L2,0.1501701,4.025351691
1,1,69771,L2,0.624969,4.025351691
1,1,514305,L2,0.3054379,4.025351691
1,1,617211,L2,0.601393,4.025351691
0,1,752128,L2,0.4772719,4.025351691
1,1,871398,L2,0.448749,4.025351691
0,1,697760,L2,0.711845,4.025351691
0,1,379265,L2,0.813785,4.025351691
1,1,735448,L2,0.3326728,4.025351691
1,1,336257,L2,0.5064349,4.025351691
0,1,735448,L2,0.4794996,4.025351691
1,0,154393,L2,0.2775342,4.025351691
1,1,767065,L2,0.6995787,4.025351691
1,1,886168,L2,0.4306066,4.025351691
0,1,183117,L2,0.4166984,4.025351691
0,0,901980,L2,0.7651932,4.025351691
0,1,501349,L2,0.9130476,4.025351691
1,1,306328,L2,0.6240933,4.025351691
0,1,302458,L2,0.5250346,4.025351691
0,1,69771,L2,0.7856207,4.025351691
1,1,183117,L2,1.0487011,4.025351691
1,1,248930,L2,-0.6321898,4.025351691
0,1,607827,L2,0.3306266,4.025351691
0,1,336257,L2,0.6081733,4.025351691
0,1,700064,L2,0.3926464,4.025351691
1,1,716031,L2,0.3865117,4.025351691
1,1,843976,L2,0.4006761,4.025351691
1,1,85913,L2,0.3924348,4.025351691
1,1,631538,L2,0.3909062,4.025351691
0,1,85913,L2,0.4430606,4.025351691
1,1,447513,L2,0.4275307,4.025351691
1,1,783049,L2,0.3623969,4.025351691
0,1,572187,L2,0.3481592,4.025351691
0,1,767065,L2,0.5317867,4.025351691
1,1,108486,L2,0.3627952,4.025351691
0,1,108486,L2,0.3855306,4.025351691
0,1,147512,L2,0.2083826,4.025351691
1,1,607827,L2,0.3935928,4.025351691
1,1,697760,L2,0.4751506,4.025351691
1,1,302458,L2,0.2073839,4.025351691
0,1,911462,L2,0.7882281,4.025351691
1,1,216249,L2,0.1482361,4.025351691
0,0,173085,L2,0.6892837,4.025351691
0,1,586804,L2,0.3783125,4.025351691
1,1,572187,L2,0.3270604,4.025351691
1,1,959490,L2,0.4990354,4.025351691
1,1,717501,L2,0.4519197,4.025351691
1,1,331100,L2,0.5016753,4.025351691
1,1,379265,L2,0.6099219,4.025351691
0,1,697259,L2,0.5643219,4.025351691
0,1,702640,L2,0.6716847,4.025351691
0,0,154393,L2,0.5632341,4.025351691
1,1,697259,L2,0.4911655,4.025351691
1,1,159491,L2,0.3844967,4.025351691
0,1,929015,L2,0.3408512,4.025351691
0,1,631538,L2,0.7264419,4.025351691
0,1,373596,L2,0.4576342,4.025351691
1,1,648557,L2,0.4752582,4.025351691
0,1,331100,L2,0.3071892,4.025351691
0,1,864280,L2,0.9409356,4.025351691
1,1,774770,L2,0.4727894,4.025351691
0,1,15711,L2,0.5551496,4.025351691
1,1,922683,L2,0.519835,4.025351691
1,1,700064,L2,0.1572471,4.025351691
0,1,783049,L2,0.6075663,4.025351691
0,1,871398,L2,1.0254249,4.025351691
0,1,544005,L2,0.3210992,4.025351691
0,1,306328,L2,0.432527,4.025351691
1,1,790740,L2,0.4703765,4.025351691
1,1,173085,L2,0.3609143,4.025351691
1,1,672285,L2,0.3244427,4.025351691
1,1,501349,L2,0.5011561,4.025351691
0,1,159491,L2,0.4077055,4.025351691
0,1,376188,L2,-0.3381795,4.025351691
0,1,843976,L2,0.5239908,4.025351691
1,1,998663,L2,0.3063532,4.025351691
1,1,911462,L2,0.5174613,4.025351691
0,0,648557,L2,0.3521153,4.025351691
0,1,886168,L2,0.576727,4.025351691
1,1,929015,L2,0.8314646,4.025351691
1,1,15711,L2,0.2501248,4.025351691
0,1,959490,L2,0.6431951,4.025351691
1,1,716031,L2,0.5888591,4.025351691
1,1,85913,L2,0.405289,4.025351691
1,1,752128,L2,0.4290795,4.025351691
0,0,586804,L2,0.6834269,4.025351691
1,1,792988,L2,0.5393293,4.025351691
1,1,376188,L2,-0.1908848,4.025351691
1,1,672285,L2,0.3600445,4.025351691
0,1,187490,L2,0.8651055,4.025351691
1,1,911462,L2,0.5572085,4.025351691
1,1,248930,L2,-0.7786428,4.025351691
1,1,702640,L2,0.4578432,4.025351691
0,0,154393,L2,0.3720539,4.025351691
0,1,306328,L2,0.6536369,4.025351691
1,1,631538,L2,0.32074,4.025351691
0,1,447513,L2,0.6804803,4.025351691
1,1,147512,L2,0.492372,4.025351691
1,1,922683,L2,0.3394627,4.025351691
0,1,316397,L2,0.6025058,4.025351691
1,1,767065,L2,1.0884265,4.025351691
1,0,648557,L2,1.812808,4.025351691
0,1,501349,L2,0.5187203,4.025351691
1,1,843976,L2,0.4892945,4.025351691
0,1,173085,L2,0.4251755,4.025351691
0,1,752128,L2,0.5259595,4.025351691
0,1,183117,L2,0.7683602,4.025351691
1,1,617211,L2,0.6948919,4.025351691
0,1,302458,L2,0.4585895,4.025351691
1,1,447513,L2,0.7424034,4.025351691
1,1,717501,L2,0.7403627,4.025351691
0,1,767065,L2,0.577513,4.025351691
1,1,886168,L2,0.4891051,4.025351691
1,1,316397,L2,0.2782676,4.025351691
0,1,514305,L2,0.3529457,4.025351691
0,1,959490,L2,0.5134657,4.025351691
0,1,69771,L2,0.7033489,4.025351691
1,1,917009,L2,0.3586573,4.025351691
1,1,929015,L2,0.3406398,4.025351691
0,1,697760,L2,0.6333372,4.025351691
0,1,735448,L2,0.2602082,4.025351691
0,1,331100,L2,0.3499945,4.025351691
1,1,15711,L2,0.2960588,4.025351691
0,1,631538,L2,0.5540787,4.025351691
1,1,790740,L2,0.2676771,4.025351691
0,1,792988,L2,0.5373187,4.025351691
1,1,379265,L2,0.4444886,4.025351691
0,1,697259,L2,0.9667131,4.025351691
0,1,3121,L2,0.4780899,4.025351691
1,1,862825,L2,0.230638,4.025351691
1,1,735448,L2,0.1995843,4.025351691
0,1,85913,L2,0.6546574,4.025351691
0,1,717501,L2,0.512998,4.025351691
0,0,648557,L2,0.6377965,4.025351691
1,1,108486,L2,0.4394172,4.025351691
0,1,716031,L2,0.4926817,4.025351691
0,1,790740,L2,0.4382765,4.025351691
0,1,373596,L2,0.6104205,4.025351691
1,1,452163,L2,0.1660927,4.025351691
0,1,964675,L2,0.3230996,4.025351691
0,1,216249,L2,0.4146347,4.025351691
0,1,774770,L2,1.2733082,4.025351691
1,1,783049,L2,0.5701204,4.025351691
0,1,917009,L2,0.6234756,4.025351691
1,1,964675,L2,0.3406163,4.025351691
1,1,173085,L2,0.348644,4.025351691
1,1,331100,L2,0.2662922,4.025351691
1,1,514305,L2,0.5658963,4.025351691
0,0,886168,L2,0.9847565,4.025351691
1,1,3121,L2,0.5444915,4.025351691
1,1,69771,L2,0.6105314,4.025351691
0,1,871398,L2,0.4425315,4.025351691
0,1,702640,L2,0.7440742,4.025351691
1,1,700064,L2,0.2748563,4.025351691
0,1,376188,L2,-0.639606,4.025351691
1,1,187490,L2,0.3558798,4.025351691
0,0,901980,L2,0.4494085,4.025351691
1,0,901980,L2,0.3980378,4.025351691
0,1,15711,L2,0.398898,4.025351691
0,1,544005,L2,0.4661709,4.025351691
0,1,159491,L2,0.5223987,4.025351691
0,1,922683,L2,0.4621888,4.025351691
1,1,864280,L2,0.2269865,4.025351691
0,1,617211,L2,0.5063238,4.025351691
0,1,108486,L2,0.3903901,4.025351691
0,1,251621,L2,0.387222,4.025351691
1,1,586804,L2,0.4648889,4.025351691
1,1,774770,L2,0.8136535,4.025351691
1,1,336257,L2,0.4783313,4.025351691
1,1,306328,L2,0.6114341,4.025351691
1,1,572187,L2,0.3835253,4.025351691
1,1,871398,L2,0.3932175,4.025351691
0,1,572187,L2,0.4718492,4.025351691
1,1,697760,L2,0.6355812,4.025351691
0,1,336257,L2,0.6346105,4.025351691
0,1,843976,L2,0.7846703,4.025351691
0,1,862825,L2,0.3447439,4.025351691
1,1,544005,L2,0.4229357,4.025351691
0,1,998663,L2,0.3635139,4.025351691
0,1,864280,L2,0.3556401,4.025351691
0,1,147512,L2,0.5893775,4.025351691
0,1,607827,L2,1.7233769,4.025351691
1,1,697259,L2,0.5117712,4.025351691
1,1,251621,L2,0.4468412,4.025351691
0,1,783049,L2,0.6554488,4.025351691
0,1,700064,L2,0.3203927,4.025351691
0,1,672285,L2,0.6559571,4.025351691
1,1,159491,L2,0.3739805,4.025351691
0,1,379265,L2,0.3847126,4.025351691
1,1,373596,L2,0.3688802,4.025351691
1,1,216249,L2,0.3000941,4.025351691
1,1,302458,L2,0.2790245,4.025351691
1,1,998663,L2,0.2913858,4.025351691
0,1,452163,L2,0.4807923,4.025351691
1,1,183117,L2,0.4826045,4.025351691
0,1,911462,L2,0.6709697,4.025351691
0,1,929015,L2,0.5288945,4.025351691
1,1,501349,L2,0.3857564,4.025351691
1,1,607827,L2,0.4937224,4.025351691
1,0,154393,L2,0.3060129,4.025351691
1,1,959490,L2,0.5657087,4.025351691
0,1,379265,L2,-0.2851207,4.406719247
1,1,959490,L2,0.3026372,4.406719247
0,1,792988,L2,0.5575967,4.406719247
1,1,331100,L2,0.1234242,4.406719247
0,1,331100,L2,0.1795093,4.406719247
1,1,752128,L2,0.271441,4.406719247
1,1,306328,L2,0.2879693,4.406719247
1,1,15711,L2,0.1924644,4.406719247
1,1,922683,L2,0.1465973,4.406719247
0,1,302458,L2,0.3474979,4.406719247
1,1,702640,L2,0.2783008,4.406719247
1,1,792988,L2,0.3552857,4.406719247
0,1,886168,L2,0.4532718,4.406719247
0,1,251621,L2,0.33993,4.406719247
0,1,154393,L2,0.1559286,4.406719247
0,1,648557,L2,0.3747225,4.406719247
1,1,376188,L2,0.1547885,4.406719247
0,1,752128,L2,-0.5682577,4.406719247
0,1,964675,L2,0.262368,4.406719247
0,1,864280,L2,0.3494089,4.406719247
1,1,452163,L2,0.2803049,4.406719247
1,1,862825,L2,0.3193684,4.406719247
0,1,697259,L2,0.6227208,4.406719247
1,1,302458,L2,0.1583263,4.406719247
0,1,783049,L2,-1.7578097,4.406719247
1,1,700064,L2,0.196317,4.406719247
1,1,783049,L2,-1.5887701,4.406719247
0,1,717501,L2,0.4610362,4.406719247
0,1,929015,L2,0.2003307,4.406719247
1,1,735448,L2,0.0092872,4.406719247
0,1,187490,L2,0.2832,4.406719247
1,1,886168,L2,0.4525037,4.406719247
1,1,843976,L2,0.1694331,4.406719247
0,1,911462,L2,0.1824026,4.406719247
1,1,251621,L2,0.3070977,4.406719247
1,1,767065,L2,0.2255868,4.406719247
0,1,15711,L2,0.351905,4.406719247
0,1,69771,L2,-1.8611624,4.406719247
1,1,69771,L2,0.3434976,4.406719247
1,1,697760,L2,0.7353099,4.406719247
0,1,586804,L2,0.1880239,4.406719247
1,1,572187,L2,0.187042,4.406719247
1,1,85913,L2,0.2714528,4.406719247
0,1,316397,L2,0.2388889,4.406719247
1,1,717501,L2,0.3567848,4.406719247
0,1,917009,L2,0.2297988,4.406719247
0,1,631538,L2,0.3115733,4.406719247
0,1,514305,L2,0.215792,4.406719247
0,1,959490,L2,-0.8813556,4.406719247
1,1,911462,L2,0.302719,4.406719247
0,1,159491,L2,0.4654852,4.406719247
0,1,147512,L2,0.1679378,4.406719247
0,1,922683,L2,0.2234392,4.406719247
0,1,85913,L2,0.467635,4.406719247
1,1,159491,L2,0.1577939,4.406719247
0,1,376188,L2,-2.432566,4.406719247
1,1,447513,L2,0.4953254,4.406719247
0,1,306328,L2,0.3552721,4.406719247
1,1,373596,L2,0.5686769,4.406719247
0,1,901980,L2,0.3695485,4.406719247
1,1,108486,L2,0.3516285,4.406719247
0,1,672285,L2,0.3541838,4.406719247
0,1,998663,L2,0.2580219,4.406719247
1,1,901980,L2,0.1792673,4.406719247
0,1,452163,L2,-0.7847919,4.406719247
1,0,586804,L2,0.3600563,4.406719247
0,1,216249,L2,-1.8086178,4.406719247
1,1,998663,L2,0.0943354,4.406719247
0,1,607827,L2,0.2033576,4.406719247
1,1,316397,L2,0.3361666,4.406719247
1,1,154393,L2,0.1571168,4.406719247
0,1,544005,L2,0.3745918,4.406719247
0,1,173085,L2,0.404667,4.406719247
1,1,917009,L2,0.1753225,4.406719247
0,1,572187,L2,0.5354156,4.406719247
0,1,862825,L2,0.1327628,4.406719247
1,1,716031,L2,0.2631854,4.406719247
1,1,929015,L2,0.2872461,4.406719247
0,1,447513,L2,0.369579,4.406719247
0,1,3121,L2,-1.7705941,4.406719247
1,1,617211,L2,0.4591546,4.406719247
1,1,216249,L2,0.1806382,4.406719247
1,1,379265,L2,0.3190293,4.406719247
1,1,697259,L2,0.2952296,4.406719247
1,1,648557,L2,0.6777917,4.406719247
1,1,183117,L2,0.1956576,4.406719247
0,1,183117,L2,0.4740228,4.406719247
0,1,501349,L2,0.3879787,4.406719247
0,1,790740,L2,0.1318765,4.406719247
0,1,843976,L2,0.4096588,4.406719247
1,1,336257,L2,0.2487503,4.406719247
1,1,3121,L2,0.3804839,4.406719247
0,1,700064,L2,0.4484496,4.406719247
0,1,373596,L2,0.3046852,4.406719247
0,1,336257,L2,-1.5011135,4.406719247
1,1,501349,L2,0.2533421,4.406719247
0,1,767065,L2,0.2251123,4.406719247
1,1,672285,L2,0.2619837,4.406719247
1,1,631538,L2,0.180916,4.406719247
0,1,702640,L2,0.2480919,4.406719247
1,1,607827,L2,0.232829,4.406719247
1,1,173085,L2,0.3250593,4.406719247
0,1,735448,L2,0.353959,4.406719247
1,1,514305,L2,-1.7441192,4.406719247
0,1,248930,L2,-2.5142485,4.406719247
1,1,187490,L2,0.1956016,4.406719247
1,1,790740,L2,0.0910344,4.406719247
0,1,108486,L2,0.5630089,4.406719247
1,1,544005,L2,0.1221904,4.406719247
1,1,147512,L2,0.1584374,4.406719247
1,1,774770,L2,0.3522734,4.406719247
1,1,248930,L2,-2.4801321,4.406719247
1,1,964675,L2,0.2443889,4.406719247
0,1,617211,L2,0.5835398,4.406719247
1,1,864280,L2,0.1976654,4.406719247
0,1,697760,L2,0.351044,4.406719247
1,1,648557,L2,0.2880194,4.406719247
0,1,862825,L2,0.2046471,4.406719247
0,1,716031,L2,-1.5784729,4.406719247
0,1,843976,L2,0.3138536,4.406719247
0,1,917009,L2,0.2187978,4.406719247
1,1,3121,L2,0.2945551,4.406719247
1,1,331100,L2,0.120147,4.406719247
1,1,792988,L2,0.3463013,4.406719247
0,1,159491,L2,0.185238,4.406719247
0,1,998663,L2,0.2605889,4.406719247
0,1,452163,L2,0.3636699,4.406719247
0,1,572187,L2,0.3382941,4.406719247
1,1,717501,L2,0.2437087,4.406719247
1,1,697760,L2,0.524832,4.406719247
1,1,572187,L2,0.1695882,4.406719247
1,1,306328,L2,0.4387287,4.406719247
0,1,752128,L2,0.1796778,4.406719247
1,1,783049,L2,-1.2459877,4.406719247
1,1,752128,L2,0.0835958,4.406719247
0,1,767065,L2,0.3788417,4.406719247
0,1,617211,L2,0.3008164,4.406719247
1,1,173085,L2,0.1932324,4.406719247
1,1,69771,L2,0.2040411,4.406719247
0,1,154393,L2,0.3203116,4.406719247
1,1,901980,L2,0.3300468,4.406719247
1,1,15711,L2,0.2046527,4.406719247
0,1,306328,L2,0.3706868,4.406719247
0,1,911462,L2,0.3866059,4.406719247
1,1,544005,L2,0.2772813,4.406719247
0,1,790740,L2,0.3882996,4.406719247
1,1,697259,L2,0.4403422,4.406719247
0,1,607827,L2,0.3213219,4.406719247
0,1,15711,L2,0.171167,4.406719247
1,1,922683,L2,0.2356306,4.406719247
1,1,862825,L2,0.1720572,4.406719247
0,1,69771,L2,0.3540462,4.406719247
0,1,922683,L2,0.3048163,4.406719247
0,1,3121,L2,0.2317695,4.406719247
0,1,648557,L2,0.3811191,4.406719247
1,1,316397,L2,0.3268527,4.406719247
1,1,447513,L2,0.4353034,4.406719247
0,1,697760,L2,0.4366181,4.406719247
1,1,672285,L2,0.3533399,4.406719247
1,1,251621,L2,-1.1037612,4.406719247
0,1,331100,L2,0.324698,4.406719247
0,1,373596,L2,0.3422113,4.406719247
0,1,717501,L2,0.3405126,4.406719247
0,1,586804,L2,0.3199634,4.406719247
1,1,917009,L2,0.1548005,4.406719247
1,1,586804,L2,0.3043188,4.406719247
0,1,864280,L2,0.2809094,4.406719247
0,1,783049,L2,-1.1318465,4.406719247
0,1,697259,L2,0.4066279,4.406719247
1,1,85913,L2,0.1935108,4.406719247
0,1,85913,L2,0.3891421,4.406719247
0,1,959490,L2,-1.1337506,4.406719247
0,1,735448,L2,0.2996288,4.406719247
1,1,607827,L2,-0.7695467,4.406719247
0,1,379265,L2,-0.6155884,4.406719247
1,1,631538,L2,0.1826647,4.406719247
1,1,964675,L2,-0.6311505,4.406719247
1,1,373596,L2,0.3105546,4.406719247
1,1,452163,L2,0.2062695,4.406719247
1,1,302458,L2,0.1234484,4.406719247
1,1,767065,L2,0.1806922,4.406719247
1,1,187490,L2,0.2108241,4.406719247
0,1,901980,L2,0.511254,4.406719247
1,1,959490,L2,0.3640117,4.406719247
1,1,617211,L2,0.3176713,4.406719247
1,1,216249,L2,0.0242238,4.406719247
1,1,843976,L2,0.247899,4.406719247
1,1,886168,L2,-1.4625621,4.406719247
0,1,774770,L2,0.5205235,4.406719247
0,1,514305,L2,0.3621746,4.406719247
1,1,716031,L2,0.4768731,4.406719247
1,1,108486,L2,0.2688692,4.406719247
0,1,702640,L2,0.7589261,4.406719247
0,1,871398,L2,0.3784021,4.406719247
1,1,379265,L2,0.3108237,4.406719247
0,1,700064,L2,0.4302135,4.406719247
1,1,700064,L2,0.2182845,4.406719247
1,1,998663,L2,0.26225,4.406719247
1,1,871398,L2,0.7107636,4.406719247
1,1,154393,L2,0.1580519,4.406719247
0,1,964675,L2,0.3385306,4.406719247
0,1,251621,L2,0.4840873,4.406719247
1,1,864280,L2,0.2045156,4.406719247
0,1,302458,L2,0.2930525,4.406719247
1,1,336257,L2,0.2718987,4.406719247
0,1,544005,L2,0.308081,4.406719247
1,1,183117,L2,0.2589783,4.406719247
1,1,501349,L2,0.2490863,4.406719247
0,1,147512,L2,0.4355565,4.406719247
1,1,911462,L2,0.2922512,4.406719247
1,1,790740,L2,0.1576442,4.406719247
0,1,248930,L2,-2.2999116,4.406719247
0,1,672285,L2,0.2134388,4.406719247
0,1,886168,L2,0.3765104,4.406719247
0,1,792988,L2,0.3339913,4.406719247
1,1,248930,L2,-2.3185769,4.406719247
1,1,735448,L2,0.2002621,4.406719247
1,1,702640,L2,0.3580517,4.406719247
0,1,187490,L2,0.1987919,4.406719247
1,1,514305,L2,0.2934369,4.406719247
1,1,774770,L2,-0.1654226,4.406719247
0,1,447513,L2,0.4283209,4.406719247
1,1,929015,L2,0.2539413,4.406719247
1,1,376188,L2,0.4003469,4.406719247
1,1,159491,L2,0.2242851,4.406719247
1,1,147512,L2,0.2830888,4.406719247
0,1,336257,L2,0.3962384,4.406719247
0,1,376188,L2,-1.8997385,4.406719247
0,1,501349,L2,0.3242579,4.406719247
0,1,929015,L2,0.3275603,4.406719247
0,1,173085,L2,-0.9661316,4.406719247
0,1,216249,L2,0.1944049,4.406719247
0,1,331100,L2,0.3277521,3.610917913
0,1,147512,L2,0.8420215,3.610917913
1,1,336257,L2,0.4323362,3.610917913
0,1,843976,L2,0.4664275,3.610917913
0,1,501349,L2,0.5696598,3.610917913
0,1,154393,L2,0.3734145,3.610917913
1,1,302458,L2,0.1387807,3.610917913
0,1,302458,L2,0.4102195,3.610917913
0,1,316397,L2,0.4485365,3.610917913
0,1,911462,L2,0.0002913,3.610917913
1,1,452163,L2,0.1007673,3.610917913
0,1,752128,L2,0.3865341,3.610917913
0,1,306328,L2,0.317396,3.610917913
1,1,774770,L2,0.5563236,3.610917913
0,1,572187,L2,0.4344729,3.610917913
0,0,767065,L2,0.4526544,3.610917913
1,1,886168,L2,0.6071304,3.610917913
1,1,631538,L2,0.3028893,3.610917913
0,1,697760,L2,0.6290575,3.610917913
0,1,700064,L2,0.1420618,3.610917913
0,1,702640,L2,0.3620592,3.610917913
1,1,672285,L2,0.4403764,3.610917913
0,1,3121,L2,0.4641324,3.610917913
1,1,871398,L2,0.037818,3.610917913
1,1,69771,L2,0.3780671,3.610917913
1,1,648557,L2,0.4136757,3.610917913
1,1,716031,L2,0.3300246,3.610917913
1,1,862825,L2,0.2451972,3.610917913
0,1,929015,L2,0.5203638,3.610917913
0,1,917009,L2,0.3142366,3.610917913
1,1,586804,L2,0.3283728,3.610917913
0,1,774770,L2,0.6937398,3.610917913
0,1,183117,L2,0.4730487,3.610917913
1,1,792988,L2,0.3342483,3.610917913
1,1,514305,L2,0.5721958,3.610917913
1,1,901980,L2,0.3776676,3.610917913
1,1,752128,L2,0.1850611,3.610917913
1,1,251621,L2,0.3255573,3.610917913
0,1,901980,L2,0.4756951,3.610917913
1,1,447513,L2,0.4665497,3.610917913
1,1,843976,L2,0.4764542,3.610917913
0,1,964675,L2,0.4879013,3.610917913
1,1,154393,L2,0.2165647,3.610917913
0,1,998663,L2,0.2835328,3.610917913
0,1,173085,L2,0.425119,3.610917913
0,1,69771,L2,0.4861544,3.610917913
0,1,864280,L2,0.4435738,3.610917913
0,1,959490,L2,0.5963384,3.610917913
0,1,790740,L2,0.2892969,3.610917913
1,1,607827,L2,0.2889284,3.610917913
0,1,251621,L2,0.3946221,3.610917913
0,1,248930,L2,-1.3828127,3.610917913
1,1,702640,L2,0.5434996,3.610917913
0,1,862825,L2,0.4400751,3.610917913
1,1,998663,L2,0.2984895,3.610917913
1,1,331100,L2,0.1852091,3.610917913
1,1,544005,L2,0.2587991,3.610917913
1,1,108486,L2,0.7835403,3.610917913
1,1,3121,L2,0.3318248,3.610917913
1,1,501349,L2,0.3798797,3.610917913
0,1,379265,L2,0.5853177,3.610917913
0,1,697259,L2,0.4240364,3.610917913
1,1,216249,L2,0.068289,3.610917913
0,0,716031,L2,0.6699903,3.610917913
1,1,85913,L2,0.2000403,3.610917913
0,1,792988,L2,0.3973093,3.610917913
0,1,108486,L2,0.5267188,3.610917913
1,1,959490,L2,0.3163838,3.610917913
0,0,336257,L2,0.5705202,3.610917913
1,1,316397,L2,0.2398971,3.610917913
0,1,672285,L2,0.2900916,3.610917913
1,1,617211,L2,0.5097716,3.610917913
1,1,15711,L2,0.3825889,3.610917913
1,1,183117,L2,0.2577684,3.610917913
1,1,306328,L2,0.3143579,3.610917913
1,1,376188,L2,0.5385556,3.610917913
1,1,917009,L2,0.2672811,3.610917913
0,1,871398,L2,0.4811286,3.610917913
0,1,886168,L2,0.8992915,3.610917913
0,1,187490,L2,0.4760209,3.610917913
0,1,376188,L2,-0.7389276,3.610917913
1,1,783049,L2,0.4223157,3.610917913
1,1,147512,L2,0.1767892,3.610917913
1,1,572187,L2,0.2896754,3.610917913
1,1,697760,L2,0.3953972,3.610917913
1,1,964675,L2,0.2505789,3.610917913
0,1,586804,L2,0.4443637,3.610917913
1,1,790740,L2,0.3499854,3.610917913
0,1,607827,L2,0.7070855,3.610917913
0,1,447513,L2,0.4428809,3.610917913
0,1,514305,L2,0.3702388,3.610917913
1,1,248930,L2,-1.176589,3.610917913
1,1,697259,L2,0.4666622,3.610917913
0,1,717501,L2,0.6338618,3.610917913
1,1,700064,L2,0.0884364,3.610917913
1,1,929015,L2,0.2468081,3.610917913
1,1,911462,L2,0.3629212,3.610917913
0,1,373596,L2,0.3906988,3.610917913
0,1,783049,L2,0.8613369,3.610917913
1,1,735448,L2,0.2652864,3.610917913
0,1,617211,L2,0.5572638,3.610917913
0,1,216249,L2,0.2705433,3.610917913
0,1,631538,L2,0.37966,3.610917913
0,1,15711,L2,0.2469306,3.610917913
1,1,159491,L2,0.4441627,3.610917913
0,1,648557,L2,0.3396421,3.610917913
1,1,922683,L2,0.5840274,3.610917913
1,1,864280,L2,0.1097132,3.610917913
0,1,922683,L2,0.6684551,3.610917913
1,1,173085,L2,0.3734887,3.610917913
0,1,85913,L2,0.4114583,3.610917913
1,1,187490,L2,0.6034356,3.610917913
0,1,159491,L2,0.5132491,3.610917913
0,1,452163,L2,0.482661,3.610917913
0,1,544005,L2,1.0690966,3.610917913
1,1,717501,L2,0.4584418,3.610917913
1,1,379265,L2,0.4633575,3.610917913
1,1,373596,L2,0.4092752,3.610917913
1,1,767065,L2,0.2538679,3.610917913
0,1,617211,L2,0.6213566,3.610917913
0,1,331100,L2,0.2285768,3.610917913
0,1,783049,L2,0.4004279,3.610917913
0,1,173085,L2,0.3940414,3.610917913
1,1,886168,L2,0.4696562,3.610917913
1,1,187490,L2,0.2451402,3.610917913
0,1,586804,L2,0.653242,3.610917913
1,1,717501,L2,0.3957719,3.610917913
1,1,251621,L2,0.512068,3.610917913
1,1,108486,L2,0.2912194,3.610917913
0,1,3121,L2,0.3337225,3.610917913
0,1,607827,L2,0.5666047,3.610917913
1,1,871398,L2,0.8629061,3.610917913
0,1,774770,L2,0.5151177,3.610917913
1,1,929015,L2,0.2181361,3.610917913
0,1,187490,L2,0.3304078,3.610917913
1,1,922683,L2,0.4071829,3.610917913
1,1,843976,L2,0.5054784,3.610917913
1,1,147512,L2,0.3766733,3.610917913
1,1,862825,L2,0.2676594,3.610917913
0,1,648557,L2,0.4555905,3.610917913
0,1,964675,L2,0.1671516,3.610917913
0,1,154393,L2,0.3760131,3.610917913
0,1,376188,L2,-0.7245813,3.610917913
0,1,379265,L2,0.3548309,3.610917913
0,1,251621,L2,0.554082,3.610917913
0,1,716031,L2,0.5675498,3.610917913
0,1,697259,L2,0.4804575,3.610917913
1,1,672285,L2,0.3571495,3.610917913
1,1,514305,L2,0.8894055,3.610917913
0,1,717501,L2,0.6426082,3.610917913
1,1,183117,L2,0.3366983,3.610917913
0,1,147512,L2,0.406428,3.610917913
1,1,69771,L2,0.3287733,3.610917913
1,1,700064,L2,0.0719239,3.610917913
1,1,154393,L2,0.144803,3.610917913
1,1,901980,L2,0.4655194,3.610917913
0,1,336257,L2,0.3925865,3.610917913
1,1,302458,L2,0.2685487,3.610917913
1,1,572187,L2,0.1338264,3.610917913
0,1,15711,L2,0.4415425,3.610917913
0,1,452163,L2,0.5598025,3.610917913
1,1,790740,L2,0.3513559,3.610917913
1,1,248930,L2,-1.0416875,3.610917913
0,1,752128,L2,0.4089997,3.610917913
1,1,752128,L2,0.0799221,3.610917913
1,1,544005,L2,0.3865113,3.610917913
0,1,108486,L2,0.4686605,3.610917913
1,1,216249,L2,0.2240207,3.610917913
0,1,702640,L2,0.4668346,3.610917913
1,1,373596,L2,0.3017876,3.610917913
1,1,607827,L2,0.2892279,3.610917913
1,1,306328,L2,0.3903764,3.610917913
0,1,514305,L2,0.6867978,3.610917913
0,1,929015,L2,0.4600736,3.610917913
1,1,917009,L2,0.2894055,3.610917913
0,1,631538,L2,0.5859519,3.610917913
1,1,964675,L2,0.1415065,3.610917913
0,1,998663,L2,0.4159516,3.610917913
0,1,790740,L2,0.4470155,3.610917913
0,1,672285,L2,0.3776962,3.610917913
1,1,85913,L2,0.3592395,3.610917913
1,1,783049,L2,0.3245684,3.610917913
0,1,792988,L2,0.3354625,3.610917913
1,1,631538,L2,0.18221,3.610917913
0,1,700064,L2,0.3966638,3.610917913
0,1,248930,L2,-0.9501444,3.610917913
1,1,998663,L2,0.3439645,3.610917913
0,1,871398,L2,0.5309509,3.610917913
1,1,159491,L2,0.4011145,3.610917913
0,1,697760,L2,0.6755002,3.610917913
0,1,501349,L2,1.1674464,3.610917913
0,1,862825,L2,0.2567234,3.610917913
1,1,617211,L2,0.4714902,3.610917913
0,1,544005,L2,0.322956,3.610917913
0,1,216249,L2,0.5544737,3.610917913
0,1,959490,L2,0.431808,3.610917913
1,1,767065,L2,0.3817813,3.610917913
0,1,183117,L2,0.2085961,3.610917913
1,1,792988,L2,0.303676,3.610917913
0,1,306328,L2,0.3429938,3.610917913
1,1,376188,L2,0.5432377,3.610917913
0,1,69771,L2,0.3673869,3.610917913
1,1,379265,L2,0.3528407,3.610917913
1,1,336257,L2,0.3652563,3.610917913
1,1,697760,L2,0.5908134,3.610917913
0,1,447513,L2,0.5595388,3.610917913
1,1,648557,L2,0.4622167,3.610917913
0,1,901980,L2,0.4851013,3.610917913
1,1,331100,L2,0.3265667,3.610917913
0,1,767065,L2,0.4575284,3.610917913
0,1,85913,L2,0.4867402,3.610917913
1,1,316397,L2,0.1039072,3.610917913
1,1,447513,L2,0.4457555,3.610917913
0,1,922683,L2,0.8782745,3.610917913
1,1,3121,L2,0.2879671,3.610917913
0,1,316397,L2,0.4189039,3.610917913
1,1,716031,L2,0.6367078,3.610917913
0,1,735448,L2,0.373923,3.610917913
0,1,886168,L2,0.8066952,3.610917913
1,1,452163,L2,0.1352026,3.610917913
0,0,864280,L2,0.3112843,3.610917913
1,1,702640,L2,0.2292284,3.610917913
1,1,15711,L2,1.6679234,3.610917913
1,1,864280,L2,1.2299706,3.610917913
1,1,735448,L2,0.3199581,3.610917913
1,1,697259,L2,0.704201,3.610917913
0,1,159491,L2,0.4552096,3.610917913
1,1,586804,L2,0.4454984,3.610917913
1,1,911462,L2,0.5046873,3.610917913
1,1,501349,L2,0.3700988,3.610917913
1,1,173085,L2,0.2523331,3.610917913
0,1,302458,L2,0.3598688,3.610917913
0,1,373596,L2,0.4813808,3.610917913
1,1,959490,L2,0.5582317,3.610917913
0,1,843976,L2,1.7274502,3.610917913
0,1,917009,L2,0.3007515,3.610917913
0,1,572187,L2,0.4870797,3.610917913
1,1,154393,L2,0.3971684,1.791759469
0,1,871398,L2,0.923521,1.791759469
0,1,216249,L2,0.1644159,1.791759469
1,1,790740,L2,0.2627962,1.791759469
1,1,544005,L2,0.2792347,1.791759469
1,1,697259,L2,0.4907212,1.791759469
0,1,700064,L2,0.144434,1.791759469
0,0,586804,L2,0.5598302,1.791759469
0,1,251621,L2,0.6136606,1.791759469
1,1,964675,L2,0.2420923,1.791759469
1,1,929015,L2,0.3273275,1.791759469
1,1,702640,L2,0.4668017,1.791759469
1,1,959490,L2,0.4084082,1.791759469
0,1,316397,L2,0.3336477,1.791759469
1,1,792988,L2,0.5396791,1.791759469
0,1,187490,L2,-0.2045055,1.791759469
1,1,501349,L2,0.319523,1.791759469
0,1,306328,L2,0.2312409,1.791759469
0,1,790740,L2,0.3886029,1.791759469
1,1,69771,L2,0.4195937,1.791759469
0,1,783049,L2,0.6509498,1.791759469
0,1,514305,L2,0.1067325,1.791759469
1,1,864280,L2,0.3217454,1.791759469
1,0,648557,L2,0.2512029,1.791759469
0,1,331100,L2,0.3325875,1.791759469
1,1,147512,L2,0.4691027,1.791759469
1,1,717501,L2,0.3421559,1.791759469
1,1,248930,L2,-0.8381323,1.791759469
0,1,864280,L2,0.4237725,1.791759469
0,1,911462,L2,0.7145559,1.791759469
1,1,373596,L2,0.1969267,1.791759469
1,1,173085,L2,0.562096,1.791759469
1,1,85913,L2,0.6577035,1.791759469
1,1,843976,L2,0.2239422,1.791759469
1,1,607827,L2,0.2905048,1.791759469
1,1,586804,L2,0.2975012,1.791759469
1,1,767065,L2,0.4251057,1.791759469
0,1,998663,L2,0.2986916,1.791759469
0,1,373596,L2,0.5009429,1.791759469
1,1,3121,L2,0.7001838,1.791759469
1,0,752128,L2,0.5315259,1.791759469
1,1,159491,L2,0.4178249,1.791759469
1,1,783049,L2,0.6105084,1.791759469
1,1,631538,L2,0.356318,1.791759469
0,1,735448,L2,0.2261218,1.791759469
1,1,376188,L2,0.3438811,1.791759469
0,1,702640,L2,0.7647443,1.791759469
1,1,452163,L2,0.3326221,1.791759469
1,1,183117,L2,0.5492415,1.791759469
0,1,767065,L2,0.6044082,1.791759469
0,1,631538,L2,0.2518263,1.791759469
0,1,376188,L2,-0.4535179,1.791759469
0,1,302458,L2,0.3642046,1.791759469
1,1,302458,L2,0.2624256,1.791759469
0,1,183117,L2,0.2203214,1.791759469
1,1,697760,L2,0.5158342,1.791759469
1,1,331100,L2,0.2600906,1.791759469
1,1,922683,L2,0.4749727,1.791759469
1,1,886168,L2,0.6658748,1.791759469
0,1,447513,L2,0.5533992,1.791759469
0,1,154393,L2,0.3644907,1.791759469
0,1,843976,L2,0.719982,1.791759469
1,0,108486,L2,0.4497798,1.791759469
0,1,336257,L2,0.5825076,1.791759469
0,1,501349,L2,0.5378337,1.791759469
1,1,572187,L2,0.2707957,1.791759469
1,1,316397,L2,0.1061039,1.791759469
1,1,911462,L2,0.3742862,1.791759469
0,1,159491,L2,0.316345,1.791759469
0,1,752128,L2,0.7642186,1.791759469
0,1,648557,L2,0.0616005,1.791759469
1,1,216249,L2,0.2590762,1.791759469
0,1,922683,L2,0.4229838,1.791759469
1,1,251621,L2,0.4674524,1.791759469
1,1,672285,L2,0.5415864,1.791759469
0,0,792988,L2,0.4314608,1.791759469
0,1,108486,L2,0.4824258,1.791759469
1,1,15711,L2,0.3229362,1.791759469
0,1,717501,L2,0.6505061,1.791759469
0,1,697760,L2,0.4920275,1.791759469
0,1,697259,L2,0.4026882,1.791759469
0,1,15711,L2,0.3625142,1.791759469
0,1,69771,L2,0.677951,1.791759469
0,0,917009,L2,0.2904971,1.791759469
0,1,173085,L2,0.3242704,1.791759469
1,1,447513,L2,0.3716359,1.791759469
0,1,672285,L2,0.4214105,1.791759469
1,1,998663,L2,0.3313858,1.791759469
1,1,716031,L2,0.6490443,1.791759469
0,0,716031,L2,0.2552369,1.791759469
0,1,617211,L2,0.3878055,1.791759469
1,1,700064,L2,0.1484564,1.791759469
1,1,379265,L2,0.4182449,1.791759469
0,1,901980,L2,0.4490024,1.791759469
0,1,147512,L2,0.3320508,1.791759469
0,1,572187,L2,0.3738131,1.791759469
1,1,617211,L2,0.4563266,1.791759469
1,1,862825,L2,0.100893,1.791759469
0,1,862825,L2,0.1998396,1.791759469
0,1,886168,L2,0.6819072,1.791759469
1,1,306328,L2,0.4349799,1.791759469
1,1,735448,L2,0.1336792,1.791759469
1,1,871398,L2,0.4807543,1.791759469
0,1,964675,L2,0.3339422,1.791759469
1,1,901980,L2,0.2681491,1.791759469
0,1,452163,L2,0.5497684,1.791759469
0,1,607827,L2,0.3003343,1.791759469
1,1,336257,L2,0.5214227,1.791759469
1,1,514305,L2,0.4019119,1.791759469
1,1,917009,L2,0.0842252,1.791759469
0,1,3121,L2,0.4476649,1.791759469
1,1,187490,L2,0.1207973,1.791759469
0,1,544005,L2,0.3878101,1.791759469
0,1,959490,L2,0.5383009,1.791759469
0,1,379265,L2,0.4633882,1.791759469
0,1,159491,L2,0.5133365,1.791759469
0,1,331100,L2,0.45378,1.791759469
1,1,964675,L2,0.2236264,1.791759469
1,1,159491,L2,0.2933824,1.791759469
0,1,959490,L2,0.5450386,1.791759469
0,1,607827,L2,0.4727908,1.791759469
1,1,697259,L2,0.3787635,1.791759469
0,1,248930,L2,-1.0153317,1.791759469
0,1,316397,L2,0.289402,1.791759469
0,1,108486,L2,0.5572573,1.791759469
1,1,774770,L2,0.6543104,1.791759469
0,1,901980,L2,0.5935391,1.791759469
1,1,886168,L2,0.5457221,1.791759469
0,1,862825,L2,0.2349477,1.791759469
0,1,85913,L2,0.5760849,1.791759469
0,1,447513,L2,0.634591,1.791759469
0,0,929015,L2,0.4301412,1.791759469
1,1,379265,L2,0.6102843,1.791759469
0,1,917009,L2,0.2555481,1.791759469
1,1,792988,L2,0.3788286,1.791759469
1,1,452163,L2,0.369779,1.791759469
1,1,922683,L2,0.5933345,1.791759469
0,1,544005,L2,0.3458791,1.791759469
0,1,572187,L2,0.5179162,1.791759469
1,1,331100,L2,0.2539272,1.791759469
0,0,302458,L2,0.2793914,1.791759469
1,1,447513,L2,0.492812,1.791759469
0,1,735448,L2,0.5924161,1.791759469
0,1,251621,L2,0.3301236,1.791759469
0,1,216249,L2,0.3964367,1.791759469
1,0,648557,L2,0.2854618,1.791759469
0,1,790740,L2,0.3386283,1.791759469
1,1,862825,L2,0.1790691,1.791759469
0,1,886168,L2,0.8901093,1.791759469
1,1,871398,L2,0.4460996,1.791759469
1,1,373596,L2,0.3947109,1.791759469
1,1,187490,L2,0.2798077,1.791759469
1,1,783049,L2,0.5095951,1.791759469
1,1,959490,L2,0.4894863,1.791759469
0,0,871398,L2,0.4324904,1.791759469
0,1,716031,L2,0.290829,1.791759469
1,1,514305,L2,0.5318873,1.791759469
0,1,672285,L2,0.4726131,1.791759469
0,0,697760,L2,0.6549259,1.791759469
1,1,501349,L2,0.2916689,1.791759469
1,1,3121,L2,0.3723411,1.791759469
0,1,69771,L2,0.4048538,1.791759469
1,1,998663,L2,0.1236834,1.791759469
1,0,316397,L2,0.2478695,1.791759469
1,1,717501,L2,0.148869,1.791759469
0,1,452163,L2,0.71763,1.791759469
0,0,586804,L2,0.4560542,1.791759469
1,1,631538,L2,0.3952421,1.791759469
0,1,373596,L2,0.4989888,1.791759469
0,1,376188,L2,-0.5675345,1.791759469
1,1,735448,L2,0.3255175,1.791759469
0,1,702640,L2,0.3937308,1.791759469
0,1,631538,L2,0.3853892,1.791759469
1,1,173085,L2,0.2134752,1.791759469
0,1,173085,L2,0.27815,1.791759469
0,1,783049,L2,0.9220091,1.791759469
0,1,336257,L2,0.453329,1.791759469
1,1,607827,L2,0.2135557,1.791759469
0,1,514305,L2,0.5344594,1.791759469
0,1,154393,L2,0.5044096,1.791759469
1,1,586804,L2,0.3826976,1.791759469
0,1,147512,L2,0.6086496,1.791759469
0,1,183117,L2,0.4036309,1.791759469
0,1,617211,L2,0.5029038,1.791759469
0,1,767065,L2,0.3593056,1.791759469
1,1,790740,L2,0.3745534,1.791759469
1,1,901980,L2,0.3087415,1.791759469
1,1,617211,L2,0.6078143,1.791759469
1,1,716031,L2,-0.1942188,1.791759469
1,1,544005,L2,0.3091159,1.791759469
0,1,864280,L2,0.497759,1.791759469
1,1,917009,L2,0.6262723,1.791759469
1,1,85913,L2,0.3455191,1.791759469
1,1,147512,L2,0.9644618,1.791759469
1,1,911462,L2,0.3041483,1.791759469
1,1,183117,L2,0.1458233,1.791759469
1,1,572187,L2,0.2168575,1.791759469
1,1,700064,L2,0.0774739,1.791759469
0,1,648557,L2,0.1820386,1.791759469
1,1,248930,L2,-1.0521783,1.791759469
0,1,697259,L2,0.7602809,1.791759469
0,1,3121,L2,0.641316,1.791759469
0,1,700064,L2,0.1402614,1.791759469
0,1,843976,L2,0.6897518,1.791759469
1,1,843976,L2,0.3780156,1.791759469
1,1,672285,L2,0.5806451,1.791759469
0,1,187490,L2,0.3446801,1.791759469
0,1,752128,L2,0.6315398,1.791759469
1,1,15711,L2,0.3287166,1.791759469
1,1,336257,L2,0.3773178,1.791759469
1,1,376188,L2,0.341365,1.791759469
1,1,702640,L2,0.4969246,1.791759469
0,1,501349,L2,0.5938006,1.791759469
0,1,911462,L2,0.3792535,1.791759469
1,1,767065,L2,0.3961621,1.791759469
0,1,379265,L2,0.3299956,1.791759469
1,1,216249,L2,0.2076654,1.791759469
0,1,964675,L2,0.4548696,1.791759469
1,1,251621,L2,0.4230552,1.791759469
0,1,792988,L2,0.2887276,1.791759469
0,1,15711,L2,0.2812193,1.791759469
1,1,108486,L2,0.8168911,1.791759469
1,1,69771,L2,0.4693796,1.791759469
1,1,929015,L2,0.5272803,1.791759469
1,1,302458,L2,0.3682331,1.791759469
1,1,864280,L2,0.4503606,1.791759469
1,1,306328,L2,0.5977465,1.791759469
0,1,717501,L2,0.358228,1.791759469
0,1,998663,L2,0.3065665,1.791759469
0,1,922683,L2,0.512846,1.791759469
1,1,697760,L2,0.7973674,1.791759469
1,1,154393,L2,0.2472924,1.791759469
1,0,697259,L2,-0.5876764,6.054439346
1,1,306328,L2,0.3908548,6.054439346
1,1,752128,L2,-0.0861797,6.054439346
0,1,631538,L2,0.3437533,6.054439346
0,1,774770,L2,0.3845651,6.054439346
0,1,672285,L2,0.3219996,6.054439346
0,0,790740,L2,0.313802,6.054439346
0,1,648557,L2,0.2614792,6.054439346
1,1,447513,L2,0.3752096,6.054439346
1,1,716031,L2,0.3162585,6.054439346
1,1,248930,L2,-2.1445495,6.054439346
1,1,783049,L2,0.255789,6.054439346
0,1,147512,L2,0.0659216,6.054439346
0,1,862825,L2,0.1972822,6.054439346
1,1,959490,L2,0.2941887,6.054439346
1,1,792988,L2,0.2322117,6.054439346
0,1,447513,L2,0.304013,6.054439346
1,1,648557,L2,0.3088057,6.054439346
1,1,3121,L2,0.1382913,6.054439346
0,1,373596,L2,0.1471733,6.054439346
0,1,929015,L2,0.2373182,6.054439346
0,1,964675,L2,0.3027045,6.054439346
1,1,617211,L2,0.4060193,6.054439346
1,1,886168,L2,0.2183448,6.054439346
0,1,306328,L2,0.3182677,6.054439346
1,1,373596,L2,0.0649482,6.054439346
0,1,917009,L2,0.1738788,6.054439346
1,1,514305,L2,0.1941715,6.054439346
1,1,216249,L2,0.0542688,6.054439346
0,1,452163,L2,0.3793505,6.054439346
1,1,251621,L2,-0.0444109,6.054439346
1,1,379265,L2,0.2253748,6.054439346
0,1,735448,L2,0.4162664,6.054439346
1,1,187490,L2,0.2321505,6.054439346
1,1,69771,L2,0.2831209,6.054439346
1,1,607827,L2,0.2274626,6.054439346
1,1,911462,L2,0.0549576,6.054439346
0,1,85913,L2,0.460369,6.054439346
0,1,572187,L2,0.3069134,6.054439346
0,1,544005,L2,-0.1292014,6.054439346
1,1,544005,L2,0.3368158,6.054439346
1,1,147512,L2,0.0158521,6.054439346
1,1,864280,L2,0.1792393,6.054439346
1,1,862825,L2,0.2330905,6.054439346
1,1,735448,L2,0.3540592,6.054439346
1,1,15711,L2,0.0588101,6.054439346
0,1,886168,L2,0.5694386,6.054439346
0,1,69771,L2,0.475029,6.054439346
0,1,3121,L2,0.0295079,6.054439346
1,1,159491,L2,0.200934,6.054439346
1,1,336257,L2,0.2396494,6.054439346
1,1,452163,L2,0.0212991,6.054439346
0,1,336257,L2,0.5136752,6.054439346
1,1,173085,L2,0.1799285,6.054439346
1,1,85913,L2,0.1066706,6.054439346
1,1,901980,L2,0.2405382,6.054439346
0,1,998663,L2,0.3216425,6.054439346
0,1,752128,L2,0.1892677,6.054439346
1,1,871398,L2,0.0576581,6.054439346
1,1,929015,L2,0.4532808,6.054439346
1,1,917009,L2,-1.377241,6.054439346
0,1,173085,L2,-0.9996102,6.054439346
0,1,248930,L2,-2.0209012,6.054439346
0,0,959490,L2,0.2481927,6.054439346
0,1,702640,L2,0.3447711,6.054439346
1,1,302458,L2,0.192496,6.054439346
0,1,216249,L2,0.2324604,6.054439346
0,1,911462,L2,0.3679827,6.054439346
1,1,717501,L2,0.0069704,6.054439346
1,1,108486,L2,0.2843124,6.054439346
1,1,922683,L2,0.2496493,6.054439346
0,1,697259,L2,0.2463188,6.054439346
0,1,302458,L2,0.2998807,6.054439346
1,1,672285,L2,0.3687382,6.054439346
0,1,15711,L2,0.0694298,6.054439346
0,1,843976,L2,0.3816787,6.054439346
1,1,501349,L2,0.3629195,6.054439346
1,1,697760,L2,0.3966615,6.054439346
1,1,998663,L2,0.0394346,6.054439346
1,1,774770,L2,0.4630066,6.054439346
0,1,767065,L2,-0.6093523,6.054439346
0,1,617211,L2,0.2920695,6.054439346
0,1,159491,L2,-0.0258555,6.054439346
0,1,783049,L2,0.2303646,6.054439346
1,1,631538,L2,0.3915688,6.054439346
0,1,154393,L2,0.2626847,6.054439346
1,1,700064,L2,-0.0084524,6.054439346
0,1,514305,L2,-0.4456015,6.054439346
1,1,154393,L2,0.1683501,6.054439346
0,1,607827,L2,0.5361443,6.054439346
1,1,331100,L2,0.1550303,6.054439346
0,1,187490,L2,0.4187671,6.054439346
0,1,331100,L2,0.0192617,6.054439346
0,1,376188,L2,-1.4240059,6.054439346
1,1,964675,L2,0.0705535,6.054439346
1,1,376188,L2,0.3748596,6.054439346
1,1,572187,L2,0.0495955,6.054439346
1,1,790740,L2,0.1285394,6.054439346
1,1,843976,L2,-0.0187649,6.054439346
0,1,871398,L2,0.4139585,6.054439346
1,1,316397,L2,0.0590171,6.054439346
1,0,586804,L2,0.3381311,6.054439346
1,1,702640,L2,0.2497958,6.054439346
0,1,700064,L2,0.2868697,6.054439346
0,1,922683,L2,0.2316058,6.054439346
1,1,767065,L2,0.2960441,6.054439346
0,1,501349,L2,0.3150962,6.054439346
0,1,379265,L2,0.3769186,6.054439346
1,1,617211,L2,0.3323416,6.054439346
1,0,716031,L2,-0.7783058,6.054439346
0,1,376188,L2,-1.6404747,6.054439346
0,1,672285,L2,0.3902666,6.054439346
0,1,871398,L2,0.4246733,6.054439346
1,1,187490,L2,0.2766108,6.054439346
0,1,452163,L2,0.2780528,6.054439346
0,1,697259,L2,0.3274691,6.054439346
1,1,452163,L2,0.1420063,6.054439346
1,1,302458,L2,0.2837903,6.054439346
1,1,700064,L2,0.1781936,6.054439346
0,1,922683,L2,0.2667247,6.054439346
0,1,917009,L2,-0.4828744,6.054439346
0,1,862825,L2,0.228625,6.054439346
0,1,752128,L2,0.4466775,6.054439346
0,1,544005,L2,0.3668348,6.054439346
1,1,911462,L2,0.2978302,6.054439346
0,1,717501,L2,0.3523803,6.054439346
0,1,886168,L2,0.0792669,6.054439346
0,1,631538,L2,0.2562862,6.054439346
0,1,447513,L2,0.3952282,6.054439346
1,1,790740,L2,0.1254201,6.054439346
1,1,959490,L2,0.3603402,6.054439346
1,1,964675,L2,0.1857407,6.054439346
0,1,3121,L2,0.4603511,6.054439346
0,1,248930,L2,-1.9647169,6.054439346
1,1,862825,L2,0.1761014,6.054439346
1,1,316397,L2,0.4138998,6.054439346
0,1,331100,L2,-0.0427923,6.054439346
0,1,306328,L2,0.3429299,6.054439346
1,1,864280,L2,0.2838693,6.054439346
1,1,607827,L2,0.0580435,6.054439346
0,0,716031,L2,-0.7180493,6.054439346
1,1,843976,L2,0.276939,6.054439346
0,1,501349,L2,0.4265182,6.054439346
0,1,336257,L2,0.3157719,6.054439346
1,1,379265,L2,0.2424747,6.054439346
0,1,154393,L2,0.2517994,6.054439346
0,1,929015,L2,-0.7002451,6.054439346
0,1,911462,L2,0.2542172,6.054439346
1,1,648557,L2,0.0427455,6.054439346
0,1,790740,L2,0.316482,6.054439346
1,1,572187,L2,0.1215735,6.054439346
0,1,183117,L2,0.5486794,6.054439346
0,1,85913,L2,0.3446388,6.054439346
1,1,922683,L2,0.3481412,6.054439346
0,1,187490,L2,0.1105343,6.054439346
0,1,767065,L2,0.3266194,6.054439346
0,1,147512,L2,0.3314001,6.054439346
0,1,702640,L2,0.5590976,6.054439346
1,1,216249,L2,0.2042921,6.054439346
1,1,373596,L2,0.3216904,6.054439346
1,1,767065,L2,0.250725,6.054439346
0,0,251621,L2,0.3913122,6.054439346
1,1,917009,L2,0.0429841,6.054439346
0,1,216249,L2,0.1964219,6.054439346
0,1,379265,L2,0.3033812,6.054439346
1,1,998663,L2,0.148303,6.054439346
0,1,572187,L2,0.4689146,6.054439346
1,1,69771,L2,0.3629329,6.054439346
1,1,697760,L2,0.1619979,6.054439346
1,1,331100,L2,-0.043221,6.054439346
1,1,447513,L2,0.5621202,6.054439346
1,1,147512,L2,0.0931999,6.054439346
1,1,544005,L2,0.2499783,6.054439346
1,1,672285,L2,0.2912219,6.054439346
0,1,864280,L2,0.2779252,6.054439346
1,1,631538,L2,0.3775967,6.054439346
1,1,376188,L2,-1.798027,6.054439346
1,1,306328,L2,0.2846325,6.054439346
1,1,3121,L2,0.1301697,6.054439346
0,1,959490,L2,0.5262444,6.054439346
1,1,173085,L2,-0.0127017,6.054439346
1,1,248930,L2,-1.7011453,6.054439346
1,1,697259,L2,0.0914024,6.054439346
1,1,251621,L2,0.3785608,6.054439346
0,1,964675,L2,0.1140742,6.054439346
1,1,901980,L2,0.21217,6.054439346
0,1,843976,L2,0.3465843,6.054439346
1,1,159491,L2,0.076928,6.054439346
1,1,752128,L2,0.0932202,6.054439346
0,1,998663,L2,0.2093652,6.054439346
0,1,700064,L2,0.0164664,6.054439346
1,1,929015,L2,0.3734167,6.054439346
0,1,15711,L2,0.3589253,6.054439346
0,1,159491,L2,0.3590911,6.054439346
1,1,717501,L2,0.2150876,6.054439346
1,1,108486,L2,0.3561981,6.054439346
1,1,85913,L2,0.2962542,6.054439346
0,1,302458,L2,0.2032831,6.054439346
0,1,697760,L2,0.563974,6.054439346
0,1,373596,L2,0.3512474,6.054439346
1,0,886168,L2,-0.4376528,6.054439346
1,1,735448,L2,0.2149029,6.054439346
1,1,154393,L2,0.1208185,6.054439346
1,1,586804,L2,0.3862835,6.054439346
0,1,792988,L2,0.5141108,6.054439346
